timestamp,acc_x,acc_y,acc_z,magn_x,magn_y,magn_z,gyro_x,gyro_y,gyro_z
1670267704.0,-9.096,-2.375,3.918,0.76,0.5689000000000001,0.0521,0.147,0.10200000000000001,-0.137
1670267704.04,-9.063,-2.454,3.93,0.7607,0.5644,0.0545,0.034,0.067,-0.16
1670267704.08,-9.084,-2.453,3.846,0.7614000000000001,0.5672,0.053500000000000006,-0.028,0.032,-0.163
1670267704.12,-9.084,-2.516,3.834,0.7574000000000001,0.5669000000000001,0.055900000000000005,-0.077,0.027,-0.164
1670267704.16,-9.096,-2.566,3.879,0.7569,0.5673,0.0543,-0.098,0.034,-0.159
1670267704.2,-9.053,-2.733,3.8080000000000003,0.7594000000000001,0.5735,0.0531,-0.117,0.036000000000000004,-0.146
1670267704.24,-9.073,-2.566,3.872,0.7571,0.5741,0.051000000000000004,-0.131,0.025,-0.083
1670267704.28,-9.102,-2.641,3.833,0.7572,0.5728,0.0488,-0.08600000000000001,0.031,-0.058
1670267704.32,-9.082,-2.583,3.931,0.7585000000000001,0.5737,0.049100000000000005,-0.043000000000000003,0.03,-0.026000000000000002
1670267704.36,-9.008000000000001,-2.555,3.83,0.7558,0.5753,0.0514,-0.023,0.022,-0.031
1670267704.4,-9.061,-2.531,3.774,0.7528,0.5724,0.051500000000000004,-0.032,0.01,-0.027
1670267704.44,-9.14,-2.453,3.88,0.755,0.5750000000000001,0.0504,-0.057,0.009000000000000001,-0.001
1670267704.48,-9.125,-2.418,3.928,0.7542,0.5736,0.0632,-0.058,0.018000000000000002,0.0
1670267704.52,-9.127,-2.362,3.898,0.7558,0.5725,0.0451,-0.061,0.021,0.005
1670267704.559999,-9.109,-2.391,3.7640000000000002,0.7558,0.5716,0.0558,-0.06,0.028,-0.005
1670267704.599999,-9.109,-2.4090000000000003,3.771,0.7573000000000001,0.5716,0.0483,-0.094,0.018000000000000002,-0.007
1670267704.639999,-9.121,-2.4090000000000003,3.85,0.7555000000000001,0.5728,0.057300000000000004,-0.125,-0.006,-0.001
1670267704.6799989,-9.161,-2.374,3.85,0.7503000000000001,0.5670000000000001,0.057300000000000004,-0.133,-0.033,-0.006
1670267704.719999,-9.13,-2.369,3.859,0.7524000000000001,0.5719000000000001,0.0511,-0.126,-0.046,-0.015
1670267704.759999,-9.077,-2.391,3.853,0.7569,0.5746,0.0275,-0.126,-0.059000000000000004,-0.034
1670267704.799999,-9.072000000000001,-2.477,3.9650000000000003,0.7541,0.5712,0.042100000000000005,-0.122,-0.069,-0.039
1670267704.839999,-9.023,-2.481,3.966,0.7525000000000001,0.5746,0.0424,-0.132,-0.056,-0.034
1670267704.879999,-9.052,-2.49,3.931,0.7542,0.5729000000000001,0.06430000000000001,-0.117,-0.018000000000000002,-0.034
1670267704.919999,-9.049,-2.513,4.041,0.7482000000000001,0.5731,0.0551,-0.091,0.005,-0.03
1670267704.959999,-9.06,-2.494,4.0120000000000005,0.7494000000000001,0.5725,0.0505,-0.085,0.028,-0.022
1670267704.999999,-9.003,-2.62,3.977,0.7546,0.5771000000000001,0.052000000000000005,-0.08700000000000001,0.029,0.012
1670267705.039999,-9.125,-2.435,3.987,0.7531,0.5738,0.049600000000000005,-0.068,0.04,0.034
1670267705.079999,-9.093,-2.466,3.977,0.7547,0.5775,0.0512,-0.046,0.05,0.011
1670267705.119999,-9.068,-2.448,3.936,0.7565000000000001,0.5780000000000001,0.05,-0.061,0.044,-0.012
1670267705.159999,-9.069,-2.493,3.883,0.7558,0.5744,0.0482,-0.09,0.016,-0.005
1670267705.199999,-9.08,-2.489,3.887,0.7538,0.5749000000000001,0.0509,-0.124,0.003,0.003
1670267705.239999,-9.121,-2.435,3.922,0.7575000000000001,0.5785,0.0489,-0.113,-0.001,-0.02
1670267705.279999,-9.109,-2.447,3.869,0.7519,0.5749000000000001,0.045200000000000004,-0.098,0.001,-0.029
1670267705.319999,-9.118,-2.497,3.9210000000000003,0.7546,0.5740000000000001,0.0505,-0.094,0.01,-0.017
1670267705.359999,-9.088000000000001,-2.5420000000000003,3.868,0.7544000000000001,0.5753,0.0507,-0.10300000000000001,0.013000000000000001,-0.009000000000000001
1670267705.399999,-9.082,-2.515,3.882,0.7533000000000001,0.5763,0.0476,-0.082,-0.003,-0.006
1670267705.439999,-9.042,-2.5100000000000002,3.8200000000000003,0.7575000000000001,0.5779000000000001,0.0465,-0.07100000000000001,-0.025,-0.016
1670267705.479999,-9.093,-2.496,3.894,0.7555000000000001,0.5760000000000001,0.0509,-0.068,-0.028,-0.022
1670267705.519999,-9.104000000000001,-2.521,3.993,0.7565000000000001,0.5755,0.0473,-0.064,-0.023,-0.017
1670267705.559999,-9.072000000000001,-2.57,3.9410000000000003,0.7552,0.5736,0.046,-0.082,-0.016,-0.015
1670267705.599998,-9.07,-2.519,3.9290000000000003,0.7577,0.5760000000000001,0.0488,-0.08,0.0,-0.003
1670267705.639998,-9.074,-2.521,4.023,0.7572,0.5775,0.046700000000000005,-0.078,0.014,0.009000000000000001
1670267705.679998,-9.082,-2.49,3.9290000000000003,0.7551,0.5753,0.046200000000000005,-0.068,0.034,-0.004
1670267705.719998,-9.042,-2.532,3.956,0.7543000000000001,0.5757,0.048400000000000006,-0.063,0.029,0.0
1670267705.759998,-9.116,-2.5540000000000003,3.943,0.7547,0.5761000000000001,0.050100000000000006,-0.079,0.02,0.004
1670267705.799998,-9.045,-2.555,3.9530000000000003,0.7513000000000001,0.5731,0.057100000000000005,-0.091,0.01,0.018000000000000002
1670267705.839998,-9.149000000000001,-2.3930000000000002,3.947,0.7593000000000001,0.5742,0.0485,-0.08,0.024,0.027
1670267705.879998,-9.063,-2.452,3.8890000000000002,0.7575000000000001,0.5744,0.0504,-0.056,0.025,-0.005
1670267705.919998,-9.006,-2.446,3.802,0.7558,0.5696,0.049600000000000005,-0.07200000000000001,0.023,-0.022
1670267705.959998,-9.072000000000001,-2.524,3.848,0.7494000000000001,0.5735,0.051000000000000004,-0.115,0.023,-0.011
1670267705.999998,-9.118,-2.485,3.8770000000000002,0.755,0.5750000000000001,0.049100000000000005,-0.116,0.016,0.009000000000000001
1670267706.039998,-9.089,-2.45,3.848,0.7561,0.5735,0.0437,-0.10300000000000001,0.021,-0.009000000000000001
1670267706.079998,-9.074,-2.424,3.798,0.7566,0.5752,0.0499,-0.083,0.013000000000000001,-0.018000000000000002
1670267706.119998,-9.071,-2.489,3.8320000000000003,0.7568,0.5750000000000001,0.047400000000000005,-0.078,0.01,-0.01
1670267706.159998,-9.109,-2.495,3.811,0.7552,0.5745,0.0465,-0.08700000000000001,0.007,-0.001
1670267706.199998,-9.13,-2.498,3.872,0.7585000000000001,0.5761000000000001,0.049300000000000004,-0.093,-0.004,0.003
1670267706.239998,-9.133000000000001,-2.5,3.942,0.7571,0.5731,0.0463,-0.091,-0.005,-0.009000000000000001
1670267706.279998,-9.112,-2.474,3.8160000000000003,0.7555000000000001,0.5755,0.0476,-0.092,0.003,-0.014
1670267706.319998,-9.113,-2.5,3.839,0.7564000000000001,0.5771000000000001,0.0444,-0.095,0.005,-0.019
1670267706.359998,-9.075000000000001,-2.478,3.771,0.7557,0.5744,0.047400000000000005,-0.081,0.01,-0.016
1670267706.399998,-9.099,-2.521,3.848,0.7538,0.5772,0.0463,-0.08600000000000001,0.009000000000000001,-0.009000000000000001
1670267706.439998,-9.111,-2.489,3.791,0.7555000000000001,0.5741,0.046200000000000005,-0.075,0.006,-0.003
1670267706.479998,-9.101,-2.488,3.895,0.7573000000000001,0.5768,0.046700000000000005,-0.064,0.006,-0.013000000000000001
1670267706.519998,-9.143,-2.552,3.884,0.7562,0.5741,0.0472,-0.068,-0.001,-0.02
1670267706.559998,-9.085,-2.487,3.843,0.7568,0.5739000000000001,0.0453,-0.066,-0.011,-0.017
1670267706.599998,-9.012,-2.56,3.85,0.7477,0.5710000000000001,0.0548,-0.08,-0.02,-0.015
1670267706.639997,-9.181000000000001,-2.438,3.9050000000000002,0.7557,0.5747,0.0541,-0.074,-0.006,0.002
1670267706.679997,-9.13,-2.515,3.845,0.7553000000000001,0.5731,0.0473,-0.07,0.016,-0.007
1670267706.719997,-9.056000000000001,-2.446,3.87,0.7569,0.5756,0.046,-0.063,0.025,-0.027
1670267706.759997,-9.111,-2.515,3.8890000000000002,0.7577,0.5738,0.0477,-0.018000000000000002,0.036000000000000004,0.009000000000000001
1670267706.799997,-9.209,-2.439,3.994,0.7561,0.5752,0.0456,0.047,0.089,0.013000000000000001
1670267706.839997,-9.094,-2.5180000000000002,3.725,0.7572,0.5744,0.05,-0.022,0.032,-0.007
1670267706.879997,-9.115,-2.46,3.85,0.758,0.5746,0.047400000000000005,-0.053,0.003,-0.012
1670267706.919997,-9.145,-2.455,3.892,0.7585000000000001,0.5712,0.0471,-0.061,-0.007,-0.005
1670267706.959997,-9.141,-2.46,3.766,0.7568,0.5731,0.047400000000000005,-0.061,0.004,-0.005
1670267706.999997,-9.168000000000001,-2.436,3.8360000000000003,0.7582,0.5759000000000001,0.047,-0.07,0.014,-0.004
1670267707.039997,-9.126,-2.412,3.904,0.7572,0.5749000000000001,0.0495,-0.067,0.005,-0.005
1670267707.079997,-9.129,-2.428,3.85,0.7588,0.5734,0.049300000000000004,-0.07100000000000001,0.006,-0.014
1670267707.119997,-9.200000000000001,-2.4170000000000003,3.786,0.7585000000000001,0.5737,0.0482,-0.074,0.006,-0.004
1670267707.159997,-9.074,-2.43,3.75,0.7571,0.5743,0.0466,-0.088,-0.002,-0.013000000000000001
1670267707.199997,-9.037,-2.395,3.7720000000000002,0.7596,0.5724,0.0499,-0.097,-0.001,-0.018000000000000002
1670267707.239997,-9.156,-2.535,3.852,0.756,0.5752,0.048,-0.199,-0.107,-0.036000000000000004
1670267707.279997,-9.102,-2.407,3.96,0.7528,0.5751000000000001,0.0451,-0.13,-0.003,-0.008
1670267707.319997,-9.047,-2.384,3.826,0.7541,0.5760000000000001,0.0505,-0.084,-0.001,-0.006
1670267707.359997,-9.09,-2.493,3.87,0.7574000000000001,0.5750000000000001,0.05,-0.067,-0.004,-0.021
1670267707.399997,-9.105,-2.488,3.835,0.7569,0.5769000000000001,0.0477,-0.062,0.003,-0.021
1670267707.439997,-9.056000000000001,-2.564,3.838,0.7566,0.5758,0.0488,-0.082,0.003,-0.022
1670267707.479997,-9.127,-2.43,3.876,0.7567,0.5778,0.0483,-0.082,0.0,0.009000000000000001
1670267707.519997,-9.156,-2.482,3.987,0.7553000000000001,0.5769000000000001,0.047400000000000005,-0.064,0.01,0.011
1670267707.5599968,-9.065,-2.442,3.848,0.7577,0.5764,0.0495,-0.045,0.023,-0.009000000000000001
1670267707.599997,-9.057,-2.508,3.7840000000000003,0.7549,0.5728,0.0505,-0.063,0.014,-0.016
1670267707.639997,-9.102,-2.536,3.875,0.7541,0.5755,0.0468,-0.085,0.004,0.007
1670267707.679996,-9.152000000000001,-2.438,3.942,0.7578,0.5752,0.047900000000000005,-0.094,-0.004,0.011
1670267707.719996,-9.051,-2.427,3.888,0.758,0.5738,0.0539,-0.077,-0.007,-0.01
1670267707.759996,-9.107,-2.463,3.969,0.7528,0.5753,0.048400000000000006,-0.062,-0.007,-0.011
1670267707.799996,-9.142,-2.49,3.948,0.7591,0.5740000000000001,0.0472,-0.063,0.0,-0.013000000000000001
1670267707.839996,-9.087,-2.457,3.8890000000000002,0.758,0.5752,0.053000000000000005,-0.082,0.014,-0.013000000000000001
1670267707.879996,-9.120000000000001,-2.445,3.9210000000000003,0.7565000000000001,0.5753,0.046700000000000005,-0.083,0.013000000000000001,-0.002
1670267707.919996,-9.158,-2.427,3.864,0.759,0.5742,0.047900000000000005,-0.082,0.01,0.003
1670267707.959996,-9.145,-2.432,3.902,0.7599,0.5752,0.0482,-0.07200000000000001,0.021,-0.008
1670267707.999996,-9.101,-2.46,3.802,0.7488,0.5710000000000001,0.049600000000000005,-0.07200000000000001,0.015,-0.014
1670267708.039996,-9.135,-2.453,3.842,0.7566,0.5736,0.046,-0.091,0.004,-0.006
1670267708.079996,-9.129,-2.462,3.862,0.7574000000000001,0.5747,0.060200000000000004,-0.089,0.003,-0.005
1670267708.119996,-9.091,-2.438,3.821,0.7553000000000001,0.5767,0.0448,-0.079,-0.006,-0.005
1670267708.159996,-9.113,-2.456,3.85,0.7524000000000001,0.5736,0.0697,-0.075,0.0,-0.014
1670267708.199996,-9.113,-2.475,3.963,0.7524000000000001,0.5732,0.045700000000000005,-0.07200000000000001,0.001,-0.007
1670267708.239996,-9.151,-2.475,3.864,0.7549,0.5732,0.04,-0.088,0.006,-0.012
1670267708.279996,-9.072000000000001,-2.458,3.864,0.7583000000000001,0.5746,0.04,-0.091,0.008,-0.012
1670267708.319996,-9.101,-2.527,3.91,0.7556,0.5740000000000001,0.055400000000000005,-0.1,-0.01,-0.007
1670267708.359996,-9.152000000000001,-2.454,3.951,0.7555000000000001,0.5738,0.0436,-0.077,-0.008,0.007
1670267708.399996,-9.168000000000001,-2.3970000000000002,3.8770000000000002,0.7547,0.5755,0.0656,-0.055,0.004,-0.014
1670267708.439996,-9.112,-2.3970000000000002,3.883,0.7542,0.5744,0.053500000000000006,-0.055,0.012,-0.036000000000000004
1670267708.479996,-9.076,-2.516,3.835,0.7556,0.5737,0.046900000000000004,-0.083,-0.002,-0.012
1670267708.519996,-9.084,-2.523,3.873,0.7419,0.5702,0.033,-0.112,-0.002,0.003
1670267708.559996,-9.122,-2.432,3.841,0.7564000000000001,0.5735,0.0455,-0.08600000000000001,0.0,-0.004
1670267708.5999959,-9.075000000000001,-2.473,3.92,0.7555000000000001,0.5722,0.058100000000000006,-0.067,0.003,-0.02
1670267708.639996,-9.098,-2.458,3.88,0.755,0.5737,0.0505,-0.062,0.001,-0.006
1670267708.679996,-9.082,-2.492,3.854,0.7487,0.5699000000000001,0.049100000000000005,-0.07200000000000001,0.008,-0.004
1670267708.719995,-9.087,-2.485,3.872,0.7515000000000001,0.5748,0.048600000000000004,-0.085,0.014,-0.003
1670267708.759995,-9.083,-2.472,3.8810000000000002,0.7569,0.5746,0.0497,-0.08,0.001,-0.006
1670267708.799995,-9.119,-2.447,3.92,0.7529,0.5721,0.0463,-0.07200000000000001,0.0,-0.014
1670267708.839995,-9.118,-2.453,3.9090000000000003,0.7563000000000001,0.5736,0.0473,-0.077,0.005,-0.016
1670267708.879995,-9.1,-2.469,3.857,0.7594000000000001,0.5766,0.0495,-0.085,0.01,-0.012
1670267708.919995,-9.048,-2.465,3.817,0.7566,0.5744,0.046700000000000005,-0.084,0.003,-0.004
1670267708.959995,-9.089,-2.45,3.838,0.7575000000000001,0.5747,0.048,-0.08,0.0,-0.011
1670267708.999995,-9.083,-2.435,3.855,0.7573000000000001,0.5778,0.048400000000000006,-0.076,0.003,-0.015
1670267709.039995,-9.13,-2.499,3.9410000000000003,0.7557,0.5755,0.0473,-0.07200000000000001,0.0,-0.017
1670267709.079995,-9.072000000000001,-2.467,3.7800000000000002,0.7571,0.5763,0.0473,-0.076,0.001,-0.005
1670267709.119995,-9.129,-2.461,3.914,0.757,0.5748,0.046400000000000004,-0.078,0.008,-0.008
1670267709.159995,-9.071,-2.478,3.875,0.7483000000000001,0.5750000000000001,0.049,-0.07200000000000001,0.003,-0.008
1670267709.199995,-9.126,-2.479,3.884,0.7582,0.5771000000000001,0.049100000000000005,-0.081,0.004,-0.012
1670267709.239995,-9.074,-2.516,3.8890000000000002,0.7562,0.5763,0.055400000000000005,-0.082,0.001,0.002
1670267709.279995,-9.142,-2.371,3.871,0.7534000000000001,0.5746,0.0473,-0.069,0.018000000000000002,0.005
1670267709.319995,-9.205,-2.577,3.898,0.758,0.5761000000000001,0.0488,-0.163,0.099,0.021
1670267709.359995,-9.0,-2.547,3.7960000000000003,0.758,0.5733,0.046900000000000004,-0.214,0.045,0.019
1670267709.3999949,-9.111,-2.434,3.843,0.7565000000000001,0.5720000000000001,0.0477,-0.167,-0.008,0.016
1670267709.439995,-9.199,-2.424,3.799,0.7608,0.5751000000000001,0.0451,-0.136,-0.012,-0.002
1670267709.479995,-9.120000000000001,-2.411,3.86,0.7608,0.5760000000000001,0.044700000000000004,-0.074,0.003,-0.028
1670267709.519995,-9.077,-2.482,3.825,0.7597,0.5761000000000001,0.045700000000000005,-0.061,-0.009000000000000001,-0.016
1670267709.559995,-9.099,-2.551,3.813,0.7577,0.5730000000000001,0.0427,-0.067,-0.006,-0.015
1670267709.599995,-9.143,-2.497,3.854,0.7565000000000001,0.5752,0.045200000000000004,-0.074,0.0,-0.006
1670267709.6399949,-9.08,-2.476,3.7720000000000002,0.7571,0.5750000000000001,0.0454,-0.068,-0.003,-0.014
1670267709.679995,-9.095,-2.454,3.8040000000000003,0.7595000000000001,0.5770000000000001,0.0472,-0.067,-0.003,-0.012
1670267709.719995,-9.1,-2.43,3.805,0.7582,0.5782,0.0471,-0.046,-0.003,-0.024
1670267709.759995,-8.965,-2.243,3.682,0.7585000000000001,0.5758,0.0471,0.056,-0.076,-0.028
1670267709.799995,-9.263,-2.6790000000000003,3.898,0.7549,0.5752,0.0466,-0.02,-0.003,-0.004
1670267709.839994,-9.1,-2.444,3.93,0.7571,0.5769000000000001,0.047900000000000005,-0.055,0.018000000000000002,-0.02
1670267709.879994,-9.1,-2.555,3.89,0.7549,0.5760000000000001,0.046400000000000004,-0.078,-0.004,-0.014
1670267709.919994,-9.074,-2.461,3.89,0.758,0.5753,0.046,-0.083,0.0,-0.01
1670267709.959994,-9.068,-2.477,3.75,0.7559,0.5778,0.0461,-0.083,-0.003,-0.009000000000000001
1670267709.999994,-9.133000000000001,-2.463,3.9170000000000003,0.7586,0.5767,0.0488,-0.073,0.0,-0.006
1670267710.039994,-9.048,-2.484,3.896,0.7486,0.5755,0.0441,-0.081,-0.007,-0.017
1670267710.079994,-9.047,-2.5140000000000002,3.844,0.7566,0.5761000000000001,0.0509,-0.074,0.002,-0.024
1670267710.119994,-9.098,-2.551,3.869,0.7563000000000001,0.5764,0.0507,-0.094,-0.005,-0.001
1670267710.159994,-9.158,-2.447,3.962,0.7555000000000001,0.5746,0.047400000000000005,-0.077,0.016,0.014
1670267710.1999938,-9.109,-2.452,3.93,0.7565000000000001,0.5749000000000001,0.0511,-0.065,0.019,-0.006
1670267710.239994,-9.096,-2.509,3.891,0.7566,0.5749000000000001,0.0494,-0.07100000000000001,0.021,-0.021
1670267710.279994,-9.054,-2.5140000000000002,3.8810000000000002,0.7566,0.5760000000000001,0.045700000000000005,-0.092,0.01,-0.016
1670267710.319994,-9.114,-2.5140000000000002,3.926,0.7569,0.5758,0.046900000000000004,-0.097,-0.007,0.0
1670267710.359994,-9.109,-2.503,3.9410000000000003,0.7575000000000001,0.5777,0.0477,-0.09,0.0,-0.011
1670267710.399994,-9.149000000000001,-2.475,4.0120000000000005,0.7546,0.5769000000000001,0.0468,-0.073,0.006,-0.011
1670267710.4399939,-9.099,-2.5100000000000002,3.954,0.7596,0.5749000000000001,0.0472,-0.079,0.013000000000000001,-0.009000000000000001
1670267710.479994,-9.075000000000001,-2.5060000000000002,3.83,0.7563000000000001,0.5763,0.0487,-0.077,0.02,-0.011
1670267710.519994,-9.102,-2.491,3.8360000000000003,0.755,0.5737,0.0473,-0.079,0.018000000000000002,-0.006
1670267710.559994,-9.066,-2.487,3.911,0.7583000000000001,0.5752,0.045200000000000004,-0.082,0.013000000000000001,-0.004
1670267710.599994,-9.077,-2.488,3.823,0.7564000000000001,0.5761000000000001,0.0492,-0.083,0.011,-0.021
1670267710.639994,-9.083,-2.481,3.795,0.7567,0.5755,0.0472,-0.085,0.008,-0.007
1670267710.6799939,-9.099,-2.523,3.907,0.7535000000000001,0.5763,0.0459,-0.081,0.005,-0.005
1670267710.719994,-9.096,-2.509,3.86,0.7575000000000001,0.5755,0.049600000000000005,-0.079,0.004,-0.007
1670267710.759994,-9.103,-2.5100000000000002,3.902,0.7561,0.5749000000000001,0.0449,-0.08,0.002,-0.007
1670267710.799994,-9.057,-2.477,3.807,0.7571,0.5731,0.0465,-0.077,0.0,-0.007
1670267710.839994,-9.087,-2.486,3.854,0.7591,0.5769000000000001,0.049100000000000005,-0.075,-0.005,-0.007
1670267710.879993,-9.081,-2.516,3.847,0.7571,0.5741,0.045700000000000005,-0.076,0.009000000000000001,-0.016
1670267710.919993,-9.121,-2.527,3.9050000000000002,0.7584000000000001,0.5745,0.0477,-0.077,0.003,-0.011
1670267710.959993,-9.056000000000001,-2.565,3.861,0.7592,0.5779000000000001,0.0477,-0.099,-0.003,-0.012
1670267710.9999928,-9.133000000000001,-2.4090000000000003,3.96,0.7542,0.5771000000000001,0.0477,-0.08,-0.001,0.007
1670267711.039993,-9.145,-2.504,3.938,0.7535000000000001,0.5778,0.044500000000000005,-0.056,0.017,-0.002
1670267711.079993,-9.067,-2.5180000000000002,3.8080000000000003,0.7594000000000001,0.5772,0.0478,-0.059000000000000004,0.023,-0.023
1670267711.119993,-9.06,-2.535,3.862,0.7567,0.5763,0.0477,-0.079,0.009000000000000001,-0.015
1670267711.159993,-9.138,-2.512,3.866,0.7564000000000001,0.5743,0.045200000000000004,-0.107,-0.003,0.005
1670267711.199993,-9.09,-2.464,3.984,0.7575000000000001,0.5772,0.0466,-0.084,0.007,-0.002
1670267711.2399929,-9.111,-2.489,3.899,0.7553000000000001,0.5767,0.048100000000000004,-0.063,0.004,-0.018000000000000002
1670267711.279993,-9.1,-2.519,3.865,0.7573000000000001,0.5761000000000001,0.0443,-0.061,0.004,-0.003
1670267711.319993,-9.08,-2.508,3.823,0.7571,0.5762,0.048100000000000004,-0.066,0.015,-0.005
1670267711.359993,-9.101,-2.496,3.915,0.7578,0.5761000000000001,0.0483,-0.081,0.015,-0.003
1670267711.399993,-9.145,-2.505,3.926,0.7542,0.5731,0.0473,-0.079,0.012,-0.007
1670267711.439993,-9.103,-2.483,3.868,0.7563000000000001,0.5766,0.049,-0.079,0.008,-0.011
1670267711.4799929,-9.122,-2.517,3.876,0.7583000000000001,0.5737,0.049,-0.077,0.012,-0.006
1670267711.519993,-9.118,-2.493,3.857,0.7591,0.5771000000000001,0.044700000000000004,-0.083,0.016,-0.008
1670267711.559993,-9.128,-2.494,3.819,0.7599,0.5785,0.0458,-0.089,0.014,0.0
1670267711.599993,-9.081,-2.481,3.786,0.7561,0.5799000000000001,0.0468,-0.082,0.01,-0.006
1670267711.639993,-9.135,-2.491,3.801,0.756,0.5757,0.0429,-0.083,0.009000000000000001,-0.01
1670267711.679993,-9.153,-2.49,3.8930000000000002,0.757,0.5744,0.0482,-0.075,0.006,-0.013000000000000001
1670267711.7199929,-9.087,-2.487,3.7880000000000003,0.7575000000000001,0.5764,0.0632,-0.074,0.008,-0.011
1670267711.759993,-9.132,-2.482,3.8360000000000003,0.7571,0.5757,0.0359,-0.085,0.002,-0.014
1670267711.799993,-9.059000000000001,-2.516,3.775,0.7571,0.5772,0.0427,-0.084,0.0,-0.011
1670267711.839993,-9.059000000000001,-2.456,3.936,0.7549,0.5772,0.0446,-0.084,-0.007,-0.006
1670267711.879993,-9.179,-2.456,3.732,0.7588,0.5745,0.0446,-0.066,0.016,0.005
1670267711.919992,-9.096,-2.497,3.732,0.7554000000000001,0.5733,0.029500000000000002,-0.054,0.012,-0.008
1670267711.959992,-9.1,-2.456,3.868,0.743,0.5713,0.0444,-0.064,0.011,-0.018000000000000002
1670267711.999992,-9.036,-2.482,3.743,0.7599,0.5775,0.0568,-0.082,-0.011,-0.002
1670267712.0399919,-9.115,-2.5260000000000002,3.81,0.7514000000000001,0.5746,0.062,-0.08600000000000001,0.001,0.0
1670267712.079992,-9.161,-2.439,3.822,0.7567,0.5746,0.0354,-0.081,0.0,-0.019
1670267712.119992,-9.117,-2.484,3.886,0.7511,0.5755,0.0584,-0.068,0.003,-0.02
1670267712.159992,-9.101,-2.466,3.8240000000000003,0.7542,0.5761000000000001,0.0466,-0.06,0.015,0.009000000000000001
1670267712.199992,-9.157,-2.457,3.969,0.7609,0.5748,0.045700000000000005,0.027,0.105,0.0
1670267712.239992,-9.193,-2.463,3.943,0.7574000000000001,0.5778,0.0476,-0.005,0.06,-0.02
1670267712.2799919,-9.074,-2.519,3.74,0.7579,0.5755,0.0454,-0.057,0.006,-0.006
1670267712.319992,-9.092,-2.445,3.781,0.7593000000000001,0.5731,0.047400000000000005,-0.07,-0.009000000000000001,-0.006
1670267712.359992,-9.149000000000001,-2.415,3.739,0.7595000000000001,0.5735,0.0466,-0.065,0.004,-0.022
1670267712.399992,-9.13,-2.444,3.777,0.7593000000000001,0.5761000000000001,0.0487,-0.069,-0.005,-0.01
1670267712.439992,-9.138,-2.457,3.791,0.7566,0.5724,0.046700000000000005,-0.07100000000000001,-0.006,-0.006
1670267712.479992,-9.135,-2.485,3.7880000000000003,0.7606,0.5725,0.0499,-0.067,0.001,-0.007
1670267712.5199919,-9.108,-2.439,3.8040000000000003,0.7564000000000001,0.5739000000000001,0.0502,-0.074,0.008,-0.007
1670267712.559992,-9.093,-2.3930000000000002,3.809,0.7591,0.5752,0.046200000000000005,-0.079,-0.006,-0.014
1670267712.599992,-9.174,-2.444,3.83,0.7483000000000001,0.5750000000000001,0.0473,-0.074,-0.009000000000000001,-0.011
1670267712.639992,-9.133000000000001,-2.451,3.865,0.7596,0.5719000000000001,0.0482,-0.067,-0.011,-0.015
1670267712.679992,-9.111,-2.5260000000000002,3.851,0.7505000000000001,0.5710000000000001,0.058800000000000005,-0.09,-0.012,-0.012
1670267712.719992,-9.127,-2.451,3.791,0.7586,0.5728,0.0487,-0.148,-0.045,-0.004
1670267712.759992,-9.175,-2.453,3.846,0.7586,0.5741,0.053500000000000006,-0.14100000000000001,-0.007,-0.011
1670267712.799992,-9.162,-2.407,3.8810000000000002,0.7562,0.5741,0.0473,-0.094,0.027,-0.021
1670267712.839992,-9.08,-2.493,3.839,0.7563000000000001,0.5746,0.0472,-0.094,0.008,-0.017
1670267712.879992,-9.164,-2.511,3.8080000000000003,0.7549,0.5763,0.0453,-0.091,-0.012,-0.006
1670267712.919992,-9.156,-2.427,3.903,0.7556,0.5743,0.0449,-0.079,-0.006,-0.016
1670267712.959991,-9.106,-2.509,3.8320000000000003,0.7566,0.5760000000000001,0.049300000000000004,-0.066,-0.012,-0.024
1670267712.999991,-9.097,-2.476,3.863,0.7599,0.5752,0.0485,-0.062,-0.015,-0.011
1670267713.039991,-9.108,-2.498,3.87,0.7578,0.5734,0.0477,-0.07,-0.005,-0.006
1670267713.0799909,-9.136000000000001,-2.5,3.874,0.757,0.5778,0.0465,-0.07100000000000001,0.009000000000000001,-0.008
1670267713.119991,-9.103,-2.491,3.914,0.7577,0.5763,0.046900000000000004,-0.077,0.005,-0.003
1670267713.159991,-9.117,-2.467,3.919,0.7572,0.5772,0.0475,-0.07,0.006,-0.006
1670267713.199991,-9.109,-2.467,3.9050000000000002,0.7575000000000001,0.5731,0.0483,-0.07200000000000001,0.008,-0.014
1670267713.239991,-9.079,-2.484,3.883,0.7568,0.5760000000000001,0.046400000000000004,-0.076,0.007,-0.01
1670267713.279991,-9.116,-2.487,3.856,0.7577,0.5736,0.0495,-0.08600000000000001,0.005,-0.01
1670267713.3199909,-9.116,-2.484,3.86,0.7586,0.5753,0.0458,-0.081,0.007,-0.004
1670267713.359991,-9.124,-2.457,3.843,0.7565000000000001,0.5757,0.047900000000000005,-0.077,0.016,-0.003
1670267713.399991,-9.105,-2.443,3.8200000000000003,0.7582,0.5728,0.0475,-0.077,0.016,-0.007
1670267713.439991,-9.113,-2.491,3.853,0.7583000000000001,0.5757,0.047900000000000005,-0.079,0.006,-0.015
1670267713.479991,-9.141,-2.499,3.892,0.7509,0.5755,0.0526,-0.083,0.001,-0.015
1670267713.519991,-9.075000000000001,-2.532,3.873,0.7578,0.5757,0.0458,-0.091,-0.012,-0.01
1670267713.559991,-9.172,-2.39,3.892,0.7559,0.5758,0.048100000000000004,-0.073,-0.008,0.004
1670267713.599991,-9.151,-2.473,3.912,0.7562,0.5724,0.047400000000000005,-0.053,0.005,-0.018000000000000002
1670267713.639991,-9.063,-2.487,3.759,0.7575000000000001,0.5748,0.0487,-0.07100000000000001,0.008,-0.023
1670267713.679991,-9.066,-2.5460000000000003,3.9010000000000002,0.758,0.5720000000000001,0.047400000000000005,-0.098,-0.005,-0.015
1670267713.719991,-9.124,-2.507,3.912,0.7572,0.5766,0.047900000000000005,-0.10400000000000001,-0.007,-0.002
1670267713.759991,-9.074,-2.4290000000000003,3.88,0.7558,0.5746,0.046700000000000005,-0.08600000000000001,0.002,-0.014
1670267713.799991,-9.079,-2.449,3.865,0.7582,0.5775,0.049100000000000005,-0.063,0.005,-0.016
1670267713.839991,-9.067,-2.5220000000000002,3.884,0.7546,0.5759000000000001,0.0505,-0.06,0.001,-0.002
1670267713.879991,-9.121,-2.512,3.924,0.7569,0.5755,0.045700000000000005,-0.085,0.013000000000000001,-0.004
1670267713.919991,-9.087,-2.475,3.884,0.7585000000000001,0.5750000000000001,0.047900000000000005,-0.082,0.02,-0.007
1670267713.959991,-9.083,-2.469,3.8890000000000002,0.7591,0.5757,0.0458,-0.085,0.008,-0.009000000000000001
1670267713.99999,-9.117,-2.478,3.862,0.7574000000000001,0.5722,0.0485,-0.07100000000000001,0.007,-0.01
1670267714.03999,-9.112,-2.491,3.847,0.749,0.5688,0.056600000000000004,-0.076,0.01,-0.01
1670267714.07999,-9.093,-2.491,3.84,0.7583000000000001,0.5763,0.0492,-0.081,0.008,-0.009000000000000001
1670267714.1199899,-9.1,-2.476,3.854,0.7565000000000001,0.5757,0.046,-0.076,0.001,-0.006
1670267714.15999,-9.106,-2.461,3.837,0.7568,0.5764,0.046900000000000004,-0.076,0.003,-0.009000000000000001
1670267714.19999,-9.1,-2.485,3.83,0.7584000000000001,0.5763,0.051000000000000004,-0.082,0.01,-0.01
1670267714.23999,-9.108,-2.473,3.862,0.7593000000000001,0.5733,0.049800000000000004,-0.075,0.003,-0.009000000000000001
1670267714.27999,-9.083,-2.513,3.896,0.7543000000000001,0.5752,0.049300000000000004,-0.084,0.005,-0.009000000000000001
1670267714.31999,-9.120000000000001,-2.499,3.88,0.7564000000000001,0.5750000000000001,0.046700000000000005,-0.08,0.005,-0.01
1670267714.35999,-9.084,-2.515,3.856,0.7592,0.5785,0.0492,-0.096,0.0,-0.009000000000000001
1670267714.39999,-9.188,-2.382,3.898,0.7568,0.5735,0.0476,-0.073,0.003,0.012
1670267714.43999,-9.112,-2.476,3.85,0.7553000000000001,0.5760000000000001,0.0492,-0.06,0.024,-0.007
1670267714.47999,-9.065,-2.478,3.754,0.7539,0.5747,0.046900000000000004,-0.062,0.028,-0.019
1670267714.51999,-9.051,-2.517,3.7880000000000003,0.7583000000000001,0.5722,0.0459,-0.101,0.012,-0.009000000000000001
1670267714.55999,-9.145,-2.494,3.8890000000000002,0.7591,0.5764,0.045700000000000005,-0.112,0.002,0.0
1670267714.59999,-9.077,-2.442,3.771,0.7549,0.5732,0.0478,-0.079,0.002,-0.014
1670267714.63999,-9.112,-2.46,3.861,0.7582,0.5746,0.046400000000000004,-0.065,0.003,-0.018000000000000002
1670267714.67999,-9.108,-2.5180000000000002,3.789,0.7575000000000001,0.5762,0.0463,-0.069,-0.001,-0.007
1670267714.71999,-9.122,-2.47,3.829,0.7579,0.5763,0.0453,-0.077,0.009000000000000001,-0.001
1670267714.75999,-9.102,-2.456,3.811,0.7571,0.5757,0.047,-0.079,0.013000000000000001,-0.006
1670267714.79999,-9.098,-2.487,3.9050000000000002,0.7585000000000001,0.5749000000000001,0.046200000000000005,-0.082,0.007,-0.012
1670267714.83999,-9.152000000000001,-2.504,3.892,0.7571,0.5789000000000001,0.046900000000000004,-0.079,0.005,-0.012
1670267714.87999,-9.141,-2.485,3.806,0.7576,0.5757,0.047,-0.079,0.006,-0.01
1670267714.91999,-9.156,-2.657,3.988,0.7588,0.5739000000000001,0.0444,-0.10200000000000001,0.039,0.0
1670267714.95999,-9.102,-2.433,3.7680000000000002,0.7536,0.5760000000000001,0.046200000000000005,-0.231,0.058,0.023
1670267714.99999,-9.157,-2.444,3.843,0.7578,0.5758,0.0422,-0.139,0.007,-0.009000000000000001
1670267715.039989,-9.071,-2.471,3.672,0.7573000000000001,0.5773,0.0432,-0.10200000000000001,0.0,-0.012
1670267715.079989,-9.121,-2.513,3.767,0.7571,0.5799000000000001,0.0463,-0.075,0.001,-0.013000000000000001
1670267715.119989,-9.114,-2.5100000000000002,3.7680000000000002,0.7587,0.5758,0.045200000000000004,-0.08,-0.003,-0.017
1670267715.1599889,-9.132,-2.499,3.786,0.7568,0.5774,0.0431,-0.07100000000000001,-0.005,-0.006
1670267715.199989,-9.166,-2.592,3.869,0.7582,0.5788,0.0427,-0.061,-0.012,-0.013000000000000001
1670267715.239989,-9.119,-2.402,3.7920000000000003,0.7622,0.5775,0.0432,-0.08,-0.012,0.011
1670267715.279989,-9.106,-2.5,3.757,0.7576,0.5727,0.032600000000000004,-0.049,0.009000000000000001,-0.009000000000000001
1670267715.319989,-9.031,-2.464,3.762,0.7558,0.5777,0.0385,-0.061,0.019,-0.016
1670267715.359989,-8.965,-2.285,3.6590000000000003,0.7544000000000001,0.5748,0.048600000000000004,0.008,-0.041,-0.019
1670267715.399989,-8.965,-2.557,3.8200000000000003,0.7544000000000001,0.5729000000000001,0.0413,-0.018000000000000002,-0.044,-0.032
1670267715.439989,-9.196,-2.557,3.8770000000000002,0.7526,0.5747,0.046700000000000005,-0.045,0.013000000000000001,-0.029
1670267715.479989,-9.03,-2.5340000000000003,3.8770000000000002,0.7464000000000001,0.5747,0.046700000000000005,-0.056,0.001,-0.025
1670267715.519989,-9.104000000000001,-2.495,3.7960000000000003,0.7573000000000001,0.5719000000000001,0.0468,-0.074,-0.007,-0.008
1670267715.559989,-9.115,-2.533,3.911,0.7543000000000001,0.5727,0.0317,-0.085,0.001,-0.003
1670267715.599989,-9.132,-2.488,3.865,0.7556,0.5731,0.0155,-0.075,0.017,-0.009000000000000001
1670267715.639989,-9.115,-2.5140000000000002,3.88,0.7568,0.5742,0.059800000000000006,-0.07,0.006,-0.009000000000000001
1670267715.679989,-9.051,-2.49,3.837,0.7516,0.5753,0.0511,-0.078,0.002,-0.003
1670267715.719989,-9.075000000000001,-2.479,3.761,0.7561,0.5752,0.049800000000000004,-0.073,0.003,-0.011
1670267715.759989,-9.114,-2.473,3.81,0.7586,0.5753,0.046,-0.073,0.012,-0.013000000000000001
1670267715.799989,-9.096,-2.509,3.821,0.7586,0.5741,0.045200000000000004,-0.079,0.003,-0.008
1670267715.839989,-9.151,-2.499,3.8930000000000002,0.7597,0.5774,0.051300000000000005,-0.077,0.0,-0.007
1670267715.879989,-9.098,-2.485,3.861,0.7573000000000001,0.5761000000000001,0.0473,-0.07100000000000001,0.0,-0.011
1670267715.919989,-9.102,-2.463,3.8240000000000003,0.7575000000000001,0.5737,0.0465,-0.07,0.003,-0.013000000000000001
1670267715.959989,-9.103,-2.515,3.902,0.7583000000000001,0.5767,0.047400000000000005,-0.084,0.0,-0.014
1670267715.999989,-9.117,-2.497,3.9050000000000002,0.7573000000000001,0.5742,0.0487,-0.084,0.009000000000000001,-0.021
1670267716.039989,-9.08,-2.56,3.843,0.7503000000000001,0.5713,0.052700000000000004,-0.099,-0.003,-0.011
1670267716.079988,-9.139,-2.451,3.87,0.758,0.5736,0.0502,-0.078,0.012,0.001
1670267716.119988,-9.108,-2.486,3.874,0.7458,0.5735,0.0472,-0.063,0.008,-0.01
1670267716.159988,-9.036,-2.472,3.798,0.7556,0.5742,0.0458,-0.069,0.017,-0.028
1670267716.199988,-9.112,-2.561,3.846,0.7502000000000001,0.5725,0.0551,-0.089,0.008,-0.008
1670267716.239988,-9.091,-2.556,3.839,0.7567,0.5742,0.0506,-0.107,-0.005,0.0
1670267716.279988,-9.144,-2.462,3.883,0.7552,0.5763,0.047400000000000005,-0.068,0.004,-0.021
1670267716.319988,-9.039,-2.521,3.786,0.758,0.5755,0.0438,-0.065,0.003,-0.017
1670267716.359988,-9.138,-2.545,3.915,0.7579,0.5744,0.0483,-0.073,0.011,-0.006
1670267716.399988,-9.142,-2.563,3.895,0.7526,0.5783,0.046900000000000004,-0.083,0.015,-0.007
1670267716.439988,-9.094,-2.512,3.821,0.7599,0.5736,0.0466,-0.08700000000000001,0.018000000000000002,0.0
1670267716.479988,-9.068,-2.489,3.845,0.7583000000000001,0.5755,0.045000000000000005,-0.08,0.013000000000000001,-0.004
1670267716.519988,-9.111,-2.496,3.855,0.7588,0.5783,0.0463,-0.076,0.008,-0.009000000000000001
1670267716.559988,-9.102,-2.487,3.773,0.7565000000000001,0.5765,0.044700000000000004,-0.073,0.016,-0.01
1670267716.599988,-9.106,-2.5300000000000002,3.793,0.7571,0.5766,0.0483,-0.076,0.013000000000000001,-0.006
1670267716.639988,-9.095,-2.5,3.827,0.7594000000000001,0.5749000000000001,0.0455,-0.08600000000000001,0.005,-0.003
1670267716.679988,-9.128,-2.5060000000000002,3.907,0.754,0.5771000000000001,0.0438,-0.08,0.002,-0.005
1670267716.719988,-9.112,-2.504,3.7840000000000003,0.7585000000000001,0.5741,0.044500000000000005,-0.074,0.015,-0.009000000000000001
1670267716.759988,-9.115,-2.5020000000000002,3.8200000000000003,0.7529,0.5757,0.044000000000000004,-0.075,0.008,-0.013000000000000001
1670267716.799988,-9.067,-2.515,3.79,0.758,0.5732,0.0465,-0.073,0.005,-0.009000000000000001
1670267716.839988,-9.14,-2.5180000000000002,3.844,0.7578,0.5767,0.045700000000000005,-0.077,0.008,-0.011
1670267716.879988,-9.08,-2.533,3.826,0.7563000000000001,0.5760000000000001,0.0476,-0.079,0.003,-0.009000000000000001
1670267716.919988,-9.123,-2.379,3.7800000000000002,0.7591,0.5733,0.047900000000000005,-0.059000000000000004,0.021,0.005
1670267716.959988,-9.137,-2.503,3.837,0.7611,0.5740000000000001,0.0466,-0.05,0.019,-0.012
1670267716.999988,-9.093,-2.511,3.807,0.7589,0.5783,0.0458,-0.081,0.015,-0.023
1670267717.039988,-9.109,-2.54,3.859,0.7559,0.5757,0.0429,-0.10200000000000001,0.003,-0.007
1670267717.079988,-9.199,-2.492,3.8890000000000002,0.7585000000000001,0.5755,0.0448,-0.097,-0.001,-0.007
1670267717.119987,-9.034,-2.469,3.7600000000000002,0.7566,0.5754,0.049,-0.074,0.003,-0.017
1670267717.159987,-9.126,-2.487,3.904,0.7571,0.5745,0.043000000000000003,-0.065,0.001,-0.019
1670267717.199987,-9.068,-2.527,3.767,0.759,0.5760000000000001,0.0458,-0.076,0.007,0.0
1670267717.239987,-9.120000000000001,-2.5,3.801,0.7554000000000001,0.5728,0.0468,-0.08,0.017,0.0
1670267717.279987,-9.078,-2.48,3.7920000000000003,0.7555000000000001,0.5770000000000001,0.0454,-0.075,0.009000000000000001,-0.009000000000000001
1670267717.319987,-9.093,-2.497,3.763,0.7594000000000001,0.5763,0.0454,-0.07100000000000001,-0.001,-0.01
1670267717.359987,-9.152000000000001,-2.5020000000000002,3.886,0.7579,0.5772,0.0472,-0.075,-0.003,-0.016
1670267717.399987,-9.13,-2.49,3.839,0.7561,0.5767,0.0448,-0.079,-0.003,-0.02
1670267717.439987,-9.064,-2.5020000000000002,3.7800000000000002,0.7599,0.5762,0.0466,-0.08,-0.002,-0.012
1670267717.479987,-9.102,-2.504,3.819,0.7559,0.5777,0.046900000000000004,-0.081,-0.002,-0.016
1670267717.519987,-9.112,-2.511,3.821,0.7566,0.5757,0.0476,-0.076,0.006,-0.014
1670267717.559987,-9.13,-2.511,3.872,0.7567,0.5775,0.0461,-0.068,0.004,-0.006
1670267717.599987,-9.1,-2.5260000000000002,3.875,0.7595000000000001,0.5770000000000001,0.0442,-0.081,0.006,-0.013000000000000001
1670267717.639987,-9.071,-2.482,3.801,0.7571,0.5761000000000001,0.0465,-0.07100000000000001,0.0,-0.007
1670267717.679987,-9.08,-2.548,3.823,0.7571,0.5803,0.0461,-0.07200000000000001,0.0,-0.013000000000000001
1670267717.719987,-9.175,-2.5020000000000002,3.896,0.7578,0.5764,0.045700000000000005,-0.07,0.006,0.003
1670267717.759987,-9.193,-2.412,3.99,0.7588,0.5730000000000001,0.0448,0.0,0.062,0.018000000000000002
1670267717.799987,-9.077,-2.54,3.775,0.7563000000000001,0.5719000000000001,0.047,0.018000000000000002,0.10200000000000001,-0.023
1670267717.839987,-9.087,-2.496,3.769,0.7588,0.5751000000000001,0.0466,-0.043000000000000003,0.016,-0.012
1670267717.879987,-9.121,-2.489,3.7680000000000002,0.7612,0.5749000000000001,0.046,-0.091,0.006,0.0
1670267717.919987,-9.15,-2.3810000000000002,3.753,0.7571,0.5749000000000001,0.0458,-0.07100000000000001,0.0,-0.015
1670267717.959987,-9.144,-2.476,3.874,0.7597,0.5745,0.0471,-0.064,-0.007,-0.031
1670267717.999987,-9.142,-2.494,3.823,0.7585000000000001,0.5766,0.0446,-0.057,-0.024,-0.016
1670267718.0399868,-9.147,-2.475,3.785,0.7555000000000001,0.5724,0.0459,-0.073,-0.008,-0.01
1670267718.079987,-9.199,-2.466,3.873,0.7594000000000001,0.5728,0.0499,-0.082,0.011,-0.007
1670267718.119987,-9.14,-2.464,3.805,0.7582,0.5729000000000001,0.048600000000000004,-0.082,0.001,0.0
1670267718.159986,-9.164,-2.462,3.8040000000000003,0.7547,0.5725,0.0454,-0.082,-0.01,-0.011
1670267718.199986,-9.191,-2.437,3.856,0.7577,0.5738,0.046900000000000004,-0.069,0.009000000000000001,-0.017
1670267718.239986,-9.118,-2.517,3.8080000000000003,0.7536,0.5731,0.046900000000000004,-0.094,-0.007,-0.015
1670267718.279986,-8.984,-2.527,3.734,0.7567,0.5746,0.045200000000000004,-0.17400000000000002,-0.064,-0.033
1670267718.319986,-9.203,-2.452,3.854,0.7569,0.5742,0.047900000000000005,-0.127,-0.007,0.0
1670267718.359986,-9.118,-2.466,3.908,0.7586,0.5763,0.046,-0.089,0.015,0.009000000000000001
1670267718.399986,-9.136000000000001,-2.444,3.798,0.7563000000000001,0.5722,0.0483,-0.066,0.004,-0.013000000000000001
1670267718.439986,-9.124,-2.486,3.821,0.7595000000000001,0.5745,0.0482,-0.056,0.001,-0.012
1670267718.479986,-9.121,-2.497,3.835,0.7571,0.5750000000000001,0.0482,-0.07200000000000001,0.0,-0.017
1670267718.519986,-9.045,-2.539,3.7640000000000002,0.7554000000000001,0.5757,0.045700000000000005,-0.089,-0.006,-0.008
1670267718.559986,-9.139,-2.4290000000000003,3.8160000000000003,0.7557,0.5746,0.0485,-0.08700000000000001,-0.01,0.0
1670267718.599986,-9.152000000000001,-2.432,3.871,0.7569,0.5749000000000001,0.049300000000000004,-0.065,0.001,0.005
1670267718.639986,-9.063,-2.447,3.826,0.7529,0.5759000000000001,0.0499,-0.054,0.02,-0.02
1670267718.679986,-9.075000000000001,-2.555,3.849,0.7566,0.5737,0.0465,-0.067,0.016,-0.023
1670267718.719986,-9.077,-2.5100000000000002,3.736,0.7578,0.5772,0.0456,-0.107,-0.001,-0.004
1670267718.759986,-9.178,-2.444,3.86,0.7563000000000001,0.5803,0.046900000000000004,-0.105,-0.004,0.007
1670267718.799986,-9.088000000000001,-2.516,3.871,0.7569,0.5758,0.0483,-0.077,0.005,-0.023
1670267718.8399858,-9.120000000000001,-2.481,3.8200000000000003,0.7565000000000001,0.5769000000000001,0.0458,-0.057,0.003,-0.016
1670267718.879986,-9.136000000000001,-2.529,3.859,0.7421,0.5713,0.0538,-0.065,0.001,-0.001
1670267718.919986,-9.128,-2.509,3.852,0.7572,0.5729000000000001,0.0362,-0.083,0.013000000000000001,-0.009000000000000001
1670267718.959986,-9.103,-2.477,3.802,0.7483000000000001,0.5729000000000001,0.0505,-0.083,0.014,-0.017
1670267718.999986,-9.124,-2.462,3.857,0.7544000000000001,0.5753,0.0419,-0.081,0.005,-0.01
1670267719.039986,-9.124,-2.5,3.9050000000000002,0.7544000000000001,0.5747,0.0665,-0.077,0.007,-0.014
1670267719.0799859,-9.163,-2.5,3.795,0.757,0.5747,0.0665,-0.078,0.015,-0.017
1670267719.119986,-9.119,-2.5100000000000002,3.795,0.7569,0.5741,0.0506,-0.079,0.005,-0.011
1670267719.159986,-9.124,-2.483,3.841,0.7538,0.5786,0.0584,-0.085,0.003,-0.01
1670267719.199986,-9.154,-2.5180000000000002,3.914,0.7567,0.5730000000000001,0.0673,-0.078,0.01,-0.004
1670267719.239986,-9.153,-2.5100000000000002,3.882,0.7537,0.5763,0.0534,-0.073,0.021,-0.006
1670267719.279985,-9.105,-2.484,3.851,0.756,0.5735,0.0695,-0.075,0.016,-0.003
1670267719.319985,-9.106,-2.493,3.781,0.7549,0.5750000000000001,0.031400000000000004,-0.08600000000000001,0.015,-0.011
1670267719.359985,-9.127,-2.463,3.8200000000000003,0.7572,0.5742,0.045700000000000005,-0.096,0.016,-0.005
1670267719.399985,-9.09,-2.521,3.807,0.7497,0.5706,0.049300000000000004,-0.094,0.01,-0.009000000000000001
1670267719.439985,-9.153,-2.464,3.837,0.7564000000000001,0.5736,0.0449,-0.07100000000000001,0.015,0.018000000000000002
1670267719.479985,-9.133000000000001,-2.438,3.781,0.7583000000000001,0.5750000000000001,0.0471,-0.058,0.024,-0.007
1670267719.519985,-9.106,-2.44,3.746,0.7596,0.5749000000000001,0.0451,-0.065,0.031,-0.018000000000000002
1670267719.559985,-9.138,-2.5300000000000002,3.727,0.7443000000000001,0.5711,0.0534,-0.105,0.007,-0.004
1670267719.599985,-9.156,-2.511,3.7800000000000002,0.7514000000000001,0.5728,0.048400000000000006,-0.109,0.0,0.007
1670267719.6399848,-9.223,-2.43,3.8160000000000003,0.7566,0.5750000000000001,0.045200000000000004,-0.079,-0.002,-0.012
1670267719.679985,-9.127,-2.492,3.805,0.7591,0.5753,0.042800000000000005,-0.061,0.003,-0.02
1670267719.719985,-9.156,-2.487,3.868,0.7597,0.5761000000000001,0.0448,-0.062,0.0,-0.003
1670267719.759985,-9.139,-2.5060000000000002,3.757,0.7588,0.5765,0.0441,-0.078,0.014,-0.003
1670267719.799985,-9.13,-2.48,3.7880000000000003,0.7595000000000001,0.5753,0.0441,-0.078,0.013000000000000001,-0.005
1670267719.839985,-9.139,-2.48,3.8080000000000003,0.7584000000000001,0.5752,0.0437,-0.076,0.004,-0.004
1670267719.8799849,-9.145,-2.451,3.8200000000000003,0.7597,0.5735,0.044000000000000004,-0.076,0.001,-0.01
1670267719.919985,-9.151,-2.467,3.757,0.7586,0.5714,0.0449,-0.08700000000000001,0.013000000000000001,-0.012
1670267719.959985,-9.155,-2.459,3.771,0.7605000000000001,0.5738,0.0456,-0.082,0.009000000000000001,-0.014
1670267719.999985,-9.17,-2.479,3.7800000000000002,0.7594000000000001,0.5749000000000001,0.0448,-0.089,0.01,-0.016
1670267720.039985,-9.128,-2.467,3.771,0.7602,0.5742,0.0478,-0.082,0.001,-0.016
1670267720.079985,-9.133000000000001,-2.478,3.75,0.7589,0.5747,0.0482,-0.077,-0.006,-0.019
1670267720.1199849,-9.188,-2.489,3.847,0.7553000000000001,0.5729000000000001,0.0487,-0.082,0.0,-0.016
1670267720.159985,-9.145,-2.5,3.83,0.7564000000000001,0.5728,0.0468,-0.076,0.003,-0.015
1670267720.199985,-9.145,-2.476,3.845,0.7574000000000001,0.5747,0.0443,-0.083,-0.002,-0.016
1670267720.239985,-9.11,-2.5180000000000002,3.795,0.7592,0.5735,0.0471,-0.084,-0.003,-0.018000000000000002
1670267720.279985,-9.156,-2.476,3.844,0.7564000000000001,0.5741,0.0471,-0.068,0.001,0.007
1670267720.319984,-9.191,-2.457,3.823,0.7595000000000001,0.5748,0.0443,-0.057,0.017,-0.001
1670267720.359984,-9.109,-2.476,3.795,0.758,0.5733,0.0453,-0.067,0.016,-0.022
1670267720.399984,-9.102,-2.5100000000000002,3.726,0.7565000000000001,0.5746,0.0444,-0.081,0.009000000000000001,-0.002
1670267720.4399838,-9.126,-2.437,3.705,0.7558,0.5762,0.0476,-0.091,0.001,0.003
1670267720.479984,-9.191,-2.42,3.838,0.7576,0.5747,0.0436,-0.067,0.012,-0.011
1670267720.519984,-9.108,-2.513,3.789,0.7603000000000001,0.5745,0.0455,-0.062,-0.003,-0.014
1670267720.559984,-9.148,-2.484,3.783,0.7579,0.5761000000000001,0.0436,-0.068,-0.003,-0.001
1670267720.599984,-9.198,-2.496,3.853,0.7582,0.5738,0.0473,-0.078,0.01,-0.004
1670267720.639984,-9.191,-2.49,3.779,0.759,0.5743,0.044500000000000005,-0.074,0.026000000000000002,-0.013000000000000001
1670267720.6799839,-9.117,-2.645,3.872,0.7574000000000001,0.5753,0.0444,-0.148,0.056,0.015
1670267720.719984,-9.105,-2.454,3.736,0.7597,0.5744,0.0455,-0.192,0.023,0.017
1670267720.759984,-9.213000000000001,-2.4130000000000003,3.8040000000000003,0.76,0.5753,0.0413,-0.107,0.01,-0.008
1670267720.799984,-9.156,-2.445,3.713,0.7574000000000001,0.5735,0.0408,-0.074,0.003,-0.012
1670267720.839984,-9.142,-2.485,3.6590000000000003,0.7608,0.5733,0.0427,-0.063,0.0,-0.014
1670267720.879984,-8.859,-2.42,3.674,0.7608,0.5739000000000001,0.042800000000000005,-0.077,-0.06,-0.043000000000000003
1670267720.9199839,-9.229000000000001,-2.408,3.681,0.7589,0.5749000000000001,0.042300000000000004,-0.074,-0.014,-0.016
1670267720.959984,-9.321,-2.582,3.823,0.7598,0.5723,0.0422,-0.07200000000000001,0.016,0.003
1670267720.999984,-9.133000000000001,-2.484,3.891,0.7593000000000001,0.5744,0.0393,-0.08700000000000001,0.005,-0.005
1670267721.039984,-9.1,-2.473,3.654,0.7583000000000001,0.5750000000000001,0.043000000000000003,-0.064,0.022,-0.008
1670267721.079984,-9.293000000000001,-2.356,3.7720000000000002,0.7596,0.5740000000000001,0.045700000000000005,-0.069,0.034,-0.007
1670267721.119984,-9.168000000000001,-2.564,3.789,0.7601,0.5736,0.0429,-0.093,-0.018000000000000002,-0.014
1670267721.1599839,-9.22,-2.4290000000000003,3.829,0.758,0.5712,0.045200000000000004,-0.093,-0.032,-0.012
1670267721.199984,-9.139,-2.489,3.676,0.7613000000000001,0.5724,0.0422,-0.065,-0.013000000000000001,-0.015
1670267721.239984,-9.109,-2.38,3.697,0.7605000000000001,0.5723,0.044500000000000005,-0.037,-0.003,-0.04
1670267721.279984,-9.206,-2.692,3.879,0.7586,0.5708,0.0456,-0.043000000000000003,-0.041,-0.043000000000000003
1670267721.319984,-9.138,-2.459,3.851,0.7603000000000001,0.5707,0.048400000000000006,-0.07100000000000001,0.004,-0.006
1670267721.359983,-9.07,-2.475,3.829,0.7606,0.5704,0.0458,-0.058,0.024,-0.008
1670267721.399983,-9.15,-2.493,3.797,0.7597,0.5731,0.0451,-0.062,0.011,-0.011
1670267721.439983,-9.13,-2.486,3.807,0.7595000000000001,0.5739000000000001,0.0453,-0.074,0.014,-0.002
1670267721.4799829,-9.181000000000001,-2.508,3.825,0.7566,0.5740000000000001,0.044000000000000004,-0.081,0.03,-0.007
1670267721.519983,-9.120000000000001,-2.467,3.684,0.7572,0.5730000000000001,0.0442,-0.08600000000000001,0.035,-0.006
1670267721.559983,-9.154,-2.492,3.735,0.7615000000000001,0.5735,0.0442,-0.094,0.029,-0.001
1670267721.599983,-9.1,-2.431,3.646,0.762,0.5732,0.0451,-0.082,0.013000000000000001,-0.01
1670267721.639983,-9.187,-2.432,3.701,0.7553000000000001,0.5719000000000001,0.043000000000000003,-0.09,0.008,-0.008
1670267721.679983,-9.164,-2.466,3.668,0.7618,0.5726,0.0448,-0.081,0.007,-0.017
1670267721.7199829,-9.117,-2.459,3.708,0.7617,0.5740000000000001,0.045000000000000005,-0.083,-0.003,-0.016
1670267721.759983,-9.138,-2.5,3.717,0.7615000000000001,0.5722,0.0437,-0.079,-0.009000000000000001,-0.016
1670267721.799983,-9.155,-2.492,3.7560000000000002,0.7595000000000001,0.5725,0.0424,-0.082,-0.005,-0.019
1670267721.839983,-9.176,-2.475,3.79,0.7626000000000001,0.5724,0.0444,-0.07100000000000001,0.004,-0.011
1670267721.879983,-9.133000000000001,-2.473,3.754,0.7594000000000001,0.5733,0.0441,-0.066,0.001,-0.014
1670267721.919983,-9.127,-2.511,3.749,0.7597,0.5747,0.043000000000000003,-0.069,0.003,-0.018000000000000002
1670267721.9599829,-9.107,-2.515,3.7070000000000003,0.7582,0.5750000000000001,0.045700000000000005,-0.068,0.014,-0.016
1670267721.999983,-9.151,-2.515,3.807,0.7573000000000001,0.5741,0.044000000000000004,-0.08700000000000001,0.006,-0.011
1670267722.039983,-9.239,-2.436,3.829,0.7622,0.5733,0.0436,-0.07200000000000001,0.013000000000000001,0.007
1670267722.079983,-9.181000000000001,-2.453,3.7880000000000003,0.7594000000000001,0.5752,0.046,-0.05,0.021,-0.014
1670267722.119983,-9.152000000000001,-2.5420000000000003,3.75,0.7596,0.5728,0.043000000000000003,-0.067,0.027,-0.026000000000000002
1670267722.159983,-9.114,-2.509,3.693,0.7605000000000001,0.5721,0.0413,-0.091,0.018000000000000002,-0.002
1670267722.199983,-9.169,-2.456,3.6830000000000003,0.7569,0.5747,0.0454,-0.1,0.012,-0.005
1670267722.239983,-9.145,-2.492,3.759,0.7582,0.5724,0.045700000000000005,-0.085,0.012,-0.01
1670267722.279983,-9.122,-2.455,3.6510000000000002,0.7582,0.5723,0.0432,-0.073,0.007,-0.015
1670267722.319983,-9.136000000000001,-2.504,3.689,0.7577,0.5736,0.0485,-0.08,0.007,-0.008
1670267722.359983,-9.168000000000001,-2.5180000000000002,3.747,0.7605000000000001,0.5733,0.0424,-0.083,0.013000000000000001,-0.005
1670267722.399982,-9.163,-2.488,3.759,0.7583000000000001,0.5695,0.0419,-0.081,0.016,-0.008
1670267722.439982,-9.161,-2.481,3.787,0.7627,0.5711,0.043300000000000005,-0.078,0.01,-0.008
1670267722.479982,-9.145,-2.485,3.641,0.76,0.5709000000000001,0.0413,-0.067,0.012,-0.013000000000000001
1670267722.5199819,-9.178,-2.484,3.692,0.7583000000000001,0.5717,0.0424,-0.078,0.012,-0.009000000000000001
1670267722.559982,-9.121,-2.469,3.641,0.7575000000000001,0.5707,0.0386,-0.08,0.01,-0.01
1670267722.599982,-9.164,-2.479,3.6510000000000002,0.7571,0.5757,0.045200000000000004,-0.088,0.005,-0.001
1670267722.639982,-9.185,-2.494,3.753,0.7578,0.5711,0.0577,-0.08,0.0,-0.003
1670267722.679982,-9.185,-2.457,3.68,0.7578,0.5729000000000001,0.0263,-0.073,0.0,-0.014
1670267722.719982,-9.135,-2.457,3.692,0.7594000000000001,0.5729000000000001,0.0263,-0.069,0.005,-0.007
1670267722.7599819,-9.181000000000001,-2.483,3.692,0.7594000000000001,0.5724,0.048400000000000006,-0.08,0.005,-0.009000000000000001
1670267722.799982,-9.166,-2.481,3.717,0.7574000000000001,0.5728,0.0352,-0.091,0.002,-0.015
1670267722.839982,-9.149000000000001,-2.495,3.771,0.758,0.5730000000000001,0.0485,-0.075,0.003,-0.013000000000000001
1670267722.879982,-9.169,-2.488,3.7070000000000003,0.7583000000000001,0.5733,0.044700000000000004,-0.084,-0.003,-0.016
1670267722.919982,-9.126,-2.505,3.676,0.745,0.5672,0.0494,-0.079,-0.006,-0.003
1670267722.959982,-9.217,-2.42,3.7110000000000003,0.76,0.5738,0.033,-0.07200000000000001,0.011,-0.009000000000000001
1670267722.9999819,-9.165000000000001,-2.508,3.661,0.7588,0.5705,0.044500000000000005,-0.076,0.007,-0.028
1670267723.039982,-9.111,-2.493,3.623,0.7594000000000001,0.5717,0.0437,-0.092,-0.002,-0.019
1670267723.079982,-9.154,-2.533,3.74,0.7604000000000001,0.5714,0.0444,-0.10200000000000001,-0.004,-0.003
1670267723.119982,-9.21,-2.513,3.777,0.7619,0.5727,0.0434,-0.078,0.005,-0.018000000000000002
1670267723.159982,-9.136000000000001,-2.511,3.726,0.7583000000000001,0.5752,0.039400000000000004,-0.067,-0.003,-0.018000000000000002
1670267723.199982,-9.114,-2.487,3.787,0.7613000000000001,0.5729000000000001,0.0443,-0.064,-0.005,-0.007
1670267723.239982,-9.179,-2.539,3.745,0.7602,0.5744,0.043300000000000005,-0.074,0.008,-0.008
1670267723.279982,-9.176,-2.5180000000000002,3.751,0.7562,0.5729000000000001,0.039400000000000004,-0.078,0.011,-0.014
1670267723.319982,-9.176,-2.529,3.778,0.7535000000000001,0.5737,0.043000000000000003,-0.075,0.006,-0.006
1670267723.359982,-9.132,-2.487,3.757,0.761,0.5720000000000001,0.046900000000000004,-0.076,0.007,-0.007
1670267723.399982,-9.146,-2.475,3.657,0.7611,0.5731,0.041,-0.07100000000000001,0.011,-0.01
1670267723.439981,-9.237,-2.488,3.746,0.7599,0.5727,0.044700000000000004,-0.03,0.043000000000000003,0.009000000000000001
1670267723.479981,-9.290000000000001,-2.362,3.853,0.7575000000000001,0.5728,0.043300000000000005,0.028,0.101,-0.013000000000000001
1670267723.519981,-9.126,-2.605,3.5820000000000003,0.7608,0.5688,0.0413,-0.031,0.032,-0.009000000000000001
1670267723.5599809,-9.148,-2.437,3.741,0.7494000000000001,0.5679000000000001,0.049800000000000004,-0.07200000000000001,0.004,0.004
1670267723.599981,-9.177,-2.459,3.654,0.7608,0.5738,0.0424,-0.082,-0.006,-0.01
1670267723.639981,-9.201,-2.4130000000000003,3.696,0.7583000000000001,0.5683,0.050100000000000006,-0.057,-0.006,-0.01
1670267723.679981,-9.168000000000001,-2.46,3.669,0.7544000000000001,0.5708,0.0398,-0.059000000000000004,0.0,-0.017
1670267723.719981,-9.196,-2.456,3.709,0.7624000000000001,0.5722,0.0441,-0.058,0.004,-0.012
1670267723.759981,-9.117,-2.487,3.723,0.7607,0.5722,0.0451,-0.074,-0.001,-0.007
1670267723.7999809,-9.157,-2.4170000000000003,3.706,0.7617,0.5697,0.0463,-0.079,-0.012,0.012
1670267723.839981,-9.238,-2.392,3.757,0.7591,0.5740000000000001,0.043500000000000004,-0.055,0.013000000000000001,-0.001
1670267723.879981,-9.178,-2.443,3.681,0.7608,0.5722,0.0425,-0.056,0.023,-0.023
1670267723.919981,-9.121,-2.48,3.65,0.7616,0.5692,0.0432,-0.083,0.006,-0.015
1670267723.959981,-9.184000000000001,-2.442,3.724,0.7611,0.5719000000000001,0.0437,-0.117,-0.008,0.002
1670267723.999981,-9.211,-2.408,3.747,0.7585000000000001,0.5723,0.0432,-0.113,-0.019,-0.018000000000000002
1670267724.039981,-9.03,-2.524,3.657,0.7591,0.5702,0.0438,-0.149,-0.063,-0.037
1670267724.079981,-9.222,-2.435,3.863,0.7589,0.5735,0.0472,-0.107,-0.004,-0.01
1670267724.119981,-9.147,-2.484,3.771,0.7613000000000001,0.5719000000000001,0.0455,-0.089,0.006,-0.009000000000000001
1670267724.159981,-9.176,-2.487,3.738,0.7575000000000001,0.5757,0.0408,-0.075,0.01,-0.015
1670267724.199981,-9.175,-2.482,3.75,0.7596,0.5719000000000001,0.0434,-0.067,0.007,-0.018000000000000002
1670267724.239981,-9.185,-2.493,3.738,0.7599,0.5716,0.041,-0.07100000000000001,-0.001,-0.012
1670267724.279981,-9.148,-2.504,3.742,0.7576,0.5716,0.0432,-0.074,0.0,-0.01
1670267724.319981,-9.172,-2.501,3.739,0.7614000000000001,0.5727,0.041800000000000004,-0.075,0.002,-0.015
1670267724.359981,-9.16,-2.5060000000000002,3.786,0.7588,0.5742,0.0449,-0.08,0.0,-0.01
1670267724.399981,-9.177,-2.521,3.8040000000000003,0.7546,0.5694,0.0431,-0.076,0.002,-0.014
1670267724.439981,-9.148,-2.499,3.801,0.7591,0.5737,0.0431,-0.074,-0.003,-0.008
1670267724.399981,-9.179,-2.492,3.765,0.7595000000000001,0.5738,0.0454,-0.079,0.002,-0.008
1670267724.439981,-9.144,-2.469,3.735,0.7585000000000001,0.5724,0.043000000000000003,-0.067,0.003,-0.01
1670267724.47998,-9.168000000000001,-2.529,3.848,0.7603000000000001,0.5720000000000001,0.0434,-0.07100000000000001,0.005,-0.017
1670267724.51998,-9.161,-2.5,3.732,0.7586,0.5736,0.0451,-0.082,0.01,-0.008
1670267724.55998,-9.137,-2.559,3.79,0.7552,0.5723,0.043000000000000003,-0.096,0.001,-0.013000000000000001
1670267724.5999799,-9.202,-2.432,3.835,0.7604000000000001,0.5721,0.0446,-0.08,0.007,0.008
1670267724.63998,-9.152000000000001,-2.479,3.79,0.7583000000000001,0.5732,0.045200000000000004,-0.063,0.015,-0.004
1670267724.67998,-9.152000000000001,-2.508,3.734,0.7584000000000001,0.5733,0.0408,-0.068,0.021,-0.025
1670267724.71998,-9.136000000000001,-2.557,3.7520000000000002,0.7575000000000001,0.5740000000000001,0.0463,-0.094,0.007,-0.008
1670267724.75998,-9.154,-2.527,3.726,0.7603000000000001,0.5750000000000001,0.0455,-0.105,-0.002,0.003
1670267724.79998,-9.234,-2.44,3.846,0.759,0.5729000000000001,0.041800000000000004,-0.084,0.009000000000000001,0.001
1670267724.83998,-9.148,-2.508,3.789,0.7583000000000001,0.5710000000000001,0.0429,-0.062,0.007,-0.016
1670267724.87998,-9.144,-2.516,3.717,0.7567,0.5729000000000001,0.044700000000000004,-0.061,0.003,-0.001
1670267724.91998,-9.175,-2.501,3.759,0.7616,0.5714,0.0424,-0.081,0.02,0.002
1670267724.95998,-9.188,-2.498,3.761,0.7552,0.5710000000000001,0.0424,-0.088,0.024,0.0
1670267724.99998,-9.159,-2.475,3.71,0.7608,0.5728,0.0432,-0.082,0.02,0.0
1670267725.03998,-9.144,-2.463,3.729,0.7558,0.5719000000000001,0.0438,-0.08,0.02,-0.009000000000000001
1670267725.07998,-9.166,-2.464,3.662,0.7575000000000001,0.5722,0.0422,-0.074,0.021,-0.009000000000000001
1670267725.11998,-9.200000000000001,-2.487,3.732,0.7629,0.5706,0.042300000000000004,-0.08600000000000001,0.019,-0.006
1670267725.15998,-9.21,-2.49,3.75,0.7607,0.5719000000000001,0.0405,-0.08700000000000001,0.013000000000000001,-0.003
1670267725.19998,-9.251,-2.472,3.744,0.7584000000000001,0.5705,0.041600000000000005,-0.088,0.003,0.0
1670267725.23998,-9.159,-2.454,3.6470000000000002,0.76,0.5736,0.0439,-0.08,-0.002,0.0
1670267725.27998,-9.17,-2.458,3.66,0.7617,0.5711,0.0425,-0.076,0.0,-0.012
1670267725.31998,-9.212,-2.493,3.781,0.759,0.5697,0.0396,-0.077,-0.003,-0.012
1670267725.35998,-9.122,-2.491,3.652,0.7629,0.5702,0.042100000000000005,-0.081,-0.002,-0.014
1670267725.39998,-9.209,-2.485,3.753,0.7614000000000001,0.5714,0.0415,-0.084,-0.004,-0.018000000000000002
1670267725.43998,-9.13,-2.505,3.722,0.7566,0.5715,0.0437,-0.08700000000000001,-0.007,-0.01
1670267725.47998,-9.290000000000001,-2.4050000000000002,3.8160000000000003,0.7602,0.5711,0.0424,-0.069,0.002,0.005
1670267725.519979,-9.179,-2.5140000000000002,3.701,0.7619,0.5713,0.0439,-0.069,0.021,-0.008
1670267725.559979,-9.139,-2.484,3.701,0.761,0.5715,0.0412,-0.069,0.027,-0.021
1670267725.599979,-9.168000000000001,-2.509,3.709,0.7608,0.5699000000000001,0.0427,-0.088,0.002,-0.012
1670267725.639979,-9.203,-2.469,3.731,0.759,0.5720000000000001,0.0407,-0.099,-0.001,-0.004
1670267725.679979,-9.16,-2.441,3.678,0.7585000000000001,0.5705,0.041100000000000005,-0.081,0.005,-0.02
1670267725.719979,-9.174,-2.462,3.693,0.7636000000000001,0.5724,0.042100000000000005,-0.062,-0.004,-0.02
1670267725.759979,-9.156,-2.487,3.65,0.7615000000000001,0.5751000000000001,0.0426,-0.07,-0.003,-0.013000000000000001
1670267725.799979,-9.211,-2.49,3.799,0.7599,0.5700000000000001,0.0426,-0.075,-0.003,-0.002
1670267725.839979,-9.193,-2.485,3.765,0.7567,0.5735,0.0426,-0.07100000000000001,0.006,-0.008
1670267725.879979,-9.193,-2.499,3.737,0.7597,0.5741,0.044000000000000004,-0.067,-0.001,-0.008
1670267725.919979,-9.193,-2.483,3.716,0.7591,0.5720000000000001,0.041,-0.07,-0.003,-0.011
1670267725.959979,-9.166,-2.477,3.717,0.7581,0.5750000000000001,0.042100000000000005,-0.079,0.003,-0.014
1670267725.999979,-9.159,-2.496,3.741,0.7598,0.5724,0.0436,-0.076,0.008,-0.014
1670267726.039979,-9.175,-2.482,3.757,0.7575000000000001,0.5717,0.0415,-0.079,0.002,-0.01
1670267726.079979,-9.157,-2.475,3.677,0.7613000000000001,0.5722,0.042300000000000004,-0.068,0.0,-0.006
1670267726.119979,-9.179,-2.503,3.732,0.7607,0.5705,0.039900000000000005,-0.075,0.001,-0.01
1670267726.159979,-9.23,-2.494,3.774,0.746,0.5703,0.020800000000000003,-0.074,0.015,-0.013000000000000001
1670267726.199979,-9.158,-2.678,3.734,0.757,0.5702,0.0438,-0.171,0.058,0.017
1670267726.239979,-9.158,-2.378,3.662,0.7506,0.5681,0.0425,-0.179,0.019,0.017
1670267726.279979,-9.157,-2.378,3.645,0.7506,0.5681,0.0568,-0.107,0.008,-0.005
1670267726.319979,-9.154,-2.488,3.645,0.758,0.5717,0.0568,-0.07,-0.011,-0.01
1670267726.359979,-9.254,-2.5060000000000002,3.777,0.7588,0.5710000000000001,0.027200000000000002,-0.06,0.006,0.006
1670267726.399979,-9.166,-2.447,3.632,0.7596,0.5755,0.0541,-0.042,0.006,-0.011
1670267726.439979,-9.19,-2.485,3.721,0.7582,0.5739000000000001,0.049800000000000004,-0.061,0.012,-0.026000000000000002
1670267726.479979,-9.156,-2.486,3.665,0.7603000000000001,0.5720000000000001,0.0436,-0.08,0.007,-0.018000000000000002
1670267726.519979,-9.17,-2.508,3.634,0.7587,0.5752,0.034,-0.098,0.0,-0.013000000000000001
1670267726.559978,-9.218,-2.436,3.745,0.7625000000000001,0.5704,0.0396,-0.088,0.004,-0.03
1670267726.599978,-9.184000000000001,-2.519,3.698,0.7614000000000001,0.5739000000000001,0.0407,-0.073,-0.003,-0.023
1670267726.639978,-9.134,-2.463,3.717,0.7612,0.5749000000000001,0.041800000000000004,-0.069,-0.001,-0.009000000000000001
1670267726.679978,-9.239,-2.5420000000000003,3.735,0.7591,0.5741,0.0388,-0.091,0.012,-0.002
1670267726.719978,-9.207,-2.488,3.6790000000000003,0.7593000000000001,0.5713,0.040400000000000005,-0.073,0.021,-0.016
1670267726.759978,-9.16,-2.489,3.666,0.7607,0.5743,0.0402,-0.068,0.005,-0.02
1670267726.799978,-9.166,-2.521,3.6470000000000002,0.7621,0.5724,0.040100000000000004,-0.056,-0.015,-0.009000000000000001
1670267726.839978,-9.055,-2.2600000000000002,3.568,0.747,0.5690000000000001,0.0412,0.036000000000000004,-0.065,-0.055
1670267726.879978,-9.3,-2.6630000000000003,3.686,0.7613000000000001,0.5739000000000001,0.0402,-0.028,0.0,-0.021
1670267726.919978,-9.148,-2.484,3.732,0.7593000000000001,0.5663,0.0524,-0.062,0.009000000000000001,-0.021
1670267726.959978,-9.165000000000001,-2.517,3.728,0.7605000000000001,0.5721,0.0396,-0.07200000000000001,-0.015,-0.012
1670267726.999978,-9.199,-2.5020000000000002,3.734,0.7572,0.5695,0.0461,-0.075,-0.008,-0.005
1670267727.039978,-9.165000000000001,-2.473,3.761,0.7594000000000001,0.5735,0.0458,-0.07,-0.005,-0.01
1670267727.079978,-9.187,-2.47,3.8320000000000003,0.7614000000000001,0.5735,0.040100000000000004,-0.067,0.0,-0.012
1670267727.119978,-9.134,-2.524,3.793,0.7613000000000001,0.5712,0.043500000000000004,-0.07100000000000001,0.001,-0.015
1670267727.159978,-9.184000000000001,-2.515,3.767,0.7612,0.5711,0.0431,-0.092,0.0,-0.016
1670267727.199978,-9.138,-2.539,3.762,0.7589,0.5728,0.0429,-0.098,-0.001,-0.003
1670267727.239978,-9.185,-2.4050000000000002,3.823,0.7574000000000001,0.5737,0.042100000000000005,-0.07100000000000001,0.02,0.001
1670267727.279978,-9.185,-2.49,3.774,0.7624000000000001,0.5736,0.0476,-0.063,0.023,-0.015
1670267727.319978,-9.151,-2.508,3.7640000000000002,0.758,0.5728,0.039400000000000004,-0.068,0.027,-0.032
1670267727.359978,-9.129,-2.56,3.681,0.7583000000000001,0.5720000000000001,0.0427,-0.10200000000000001,0.011,-0.008
1670267727.399978,-9.167,-2.499,3.705,0.7604000000000001,0.5749000000000001,0.0449,-0.113,0.005,-0.005
1670267727.439978,-9.177,-2.442,3.774,0.7586,0.5711,0.0408,-0.078,0.011,-0.021
1670267727.4799778,-9.161,-2.484,3.693,0.7585000000000001,0.5733,0.0412,-0.062,0.005,-0.019
1670267727.519978,-9.17,-2.543,3.781,0.7599,0.5736,0.0425,-0.069,0.005,-0.005
1670267727.559978,-9.161,-2.528,3.709,0.7596,0.5708,0.0396,-0.074,0.012,-0.007
1670267727.599977,-9.191,-2.497,3.716,0.7553000000000001,0.5721,0.0438,-0.07100000000000001,0.018000000000000002,0.0
1670267727.639977,-9.147,-2.493,3.769,0.7599,0.5720000000000001,0.0446,-0.074,0.015,0.002
1670267727.679977,-9.145,-2.481,3.704,0.7533000000000001,0.5716,0.041100000000000005,-0.07200000000000001,0.014,0.0
1670267727.719977,-9.177,-2.479,3.642,0.7613000000000001,0.5713,0.0441,-0.077,0.021,-0.011
1670267727.759977,-9.138,-2.5100000000000002,3.7110000000000003,0.761,0.5726,0.0434,-0.08700000000000001,0.012,-0.003
1670267727.799977,-9.192,-2.5140000000000002,3.751,0.7601,0.5724,0.0414,-0.09,0.006,-0.003
1670267727.839977,-9.147,-2.47,3.644,0.758,0.5706,0.0425,-0.08700000000000001,0.014,-0.009000000000000001
1670267727.879977,-9.182,-2.475,3.6710000000000003,0.7651,0.5724,0.0415,-0.07,0.013000000000000001,-0.006
1670267727.919977,-9.188,-2.483,3.658,0.7618,0.5738,0.043000000000000003,-0.075,0.014,-0.006
1670267727.959977,-9.208,-2.505,3.723,0.7616,0.5697,0.041,-0.078,0.006,-0.003
1670267727.999977,-9.185,-2.456,3.682,0.7621,0.5735,0.0443,-0.08,0.0,-0.012
1670267728.039977,-9.115,-2.494,3.641,0.7597,0.5732,0.041600000000000005,-0.08700000000000001,-0.007,-0.012
1670267728.079977,-9.193,-2.5020000000000002,3.684,0.7598,0.5722,0.0429,-0.088,-0.013000000000000001,0.001
1670267728.119977,-9.217,-2.412,3.686,0.7597,0.5719000000000001,0.0412,-0.063,0.008,-0.005
1670267728.159977,-9.196,-2.473,3.765,0.7616,0.5718,0.0439,-0.059000000000000004,0.012,-0.022
1670267728.199977,-9.156,-2.52,3.709,0.7587,0.5717,0.0388,-0.078,0.004,-0.011
1670267728.239977,-9.148,-2.5,3.674,0.7578,0.5738,0.042800000000000005,-0.094,-0.003,0.004
1670267728.2799768,-9.235,-2.463,3.742,0.7598,0.5695,0.0422,-0.08700000000000001,-0.005,0.0
1670267728.319977,-9.162,-2.5340000000000003,3.79,0.7565000000000001,0.5675,0.0413,-0.067,0.0,-0.023
1670267728.359977,-9.178,-2.49,3.738,0.7603000000000001,0.5758,0.0429,-0.069,-0.005,-0.013000000000000001
1670267728.399977,-9.185,-2.503,3.747,0.7594000000000001,0.5728,0.0422,-0.07200000000000001,0.002,-0.003
1670267728.439977,-9.141,-2.474,3.657,0.7582,0.5710000000000001,0.0395,-0.082,0.016,-0.011
1670267728.479977,-9.165000000000001,-2.469,3.705,0.7607,0.5733,0.0422,-0.081,0.016,-0.011
1670267728.5199769,-9.18,-2.512,3.763,0.76,0.5712,0.0419,-0.08,0.0,-0.013000000000000001
1670267728.559977,-9.179,-2.486,3.68,0.7586,0.5720000000000001,0.0402,-0.083,0.002,-0.015
1670267728.599977,-9.17,-2.488,3.701,0.7616,0.5725,0.044000000000000004,-0.082,0.0,-0.014
1670267728.639977,-9.138,-2.497,3.689,0.7606,0.5752,0.0449,-0.081,-0.002,-0.012
1670267728.679977,-9.123,-2.473,3.726,0.7586,0.5707,0.041600000000000005,-0.079,-0.001,-0.012
1670267728.719976,-9.154,-2.5140000000000002,3.71,0.7603000000000001,0.5707,0.0422,-0.07100000000000001,0.001,-0.011
1670267728.759976,-9.129,-2.473,3.682,0.7601,0.5712,0.0456,-0.07100000000000001,0.005,-0.011
1670267728.799976,-9.129,-2.524,3.698,0.7607,0.5714,0.0432,-0.076,0.007,-0.007
1670267728.839976,-9.157,-2.5,3.708,0.7599,0.5733,0.042100000000000005,-0.07100000000000001,0.0,-0.007
1670267728.879976,-9.176,-2.565,3.854,0.7585000000000001,0.5744,0.041600000000000005,-0.074,-0.002,-0.012
1670267728.919976,-9.199,-2.451,3.714,0.7593000000000001,0.5739000000000001,0.0422,-0.077,0.001,-0.002
1670267728.959976,-9.196,-2.5180000000000002,3.7760000000000002,0.7605000000000001,0.5735,0.041600000000000005,-0.065,0.016,-0.005
1670267728.999976,-9.165000000000001,-2.462,3.726,0.7637,0.5721,0.0425,-0.054,0.032,-0.015
1670267729.039976,-9.226,-2.439,3.762,0.758,0.5697,0.0431,0.037,0.101,0.001
1670267729.0799758,-9.120000000000001,-2.541,3.458,0.7635000000000001,0.5714,0.0427,-0.03,0.044,0.008
1670267729.119976,-9.197000000000001,-2.398,3.6550000000000002,0.7622,0.5705,0.043000000000000003,-0.057,0.004,-0.008
1670267729.159976,-9.173,-2.472,3.714,0.7625000000000001,0.5727,0.0448,-0.053,-0.001,-0.029
1670267729.199976,-9.227,-2.456,3.771,0.7625000000000001,0.5713,0.0425,-0.06,-0.018000000000000002,-0.025
1670267729.239976,-9.199,-2.484,3.736,0.7605000000000001,0.5716,0.0449,-0.068,-0.006,-0.015
1670267729.279976,-9.274000000000001,-2.473,3.777,0.7605000000000001,0.5725,0.0431,-0.068,0.004,-0.024
1670267729.3199759,-9.200000000000001,-2.482,3.736,0.7621,0.5711,0.0431,-0.078,0.003,-0.009000000000000001
1670267729.359976,-9.154,-2.435,3.715,0.7646000000000001,0.5749000000000001,0.0471,-0.079,-0.004,-0.007
1670267729.399976,-9.203,-2.445,3.769,0.763,0.5738,0.0442,-0.07200000000000001,-0.001,-0.01
1670267729.439976,-9.168000000000001,-2.475,3.722,0.76,0.5717,0.043000000000000003,-0.07,0.008,-0.016
1670267729.479976,-9.156,-2.483,3.681,0.763,0.5730000000000001,0.046900000000000004,-0.077,0.006,-0.01
1670267729.519976,-9.171,-2.462,3.692,0.7619,0.5716,0.0426,-0.07,0.0,-0.007
1670267729.5599759,-9.169,-2.451,3.685,0.7633000000000001,0.5733,0.0432,-0.08,0.004,-0.001
1670267729.599976,-9.203,-2.442,3.741,0.7601,0.5703,0.0442,-0.07200000000000001,0.004,-0.011
1670267729.639976,-9.153,-2.462,3.722,0.7607,0.5713,0.0461,-0.063,0.003,-0.012
1670267729.679976,-9.241,-2.48,3.717,0.753,0.5700000000000001,0.047400000000000005,-0.083,-0.001,-0.007
1670267729.719976,-9.002,-2.5580000000000003,3.614,0.7625000000000001,0.5765,0.0446,-0.17500000000000002,-0.06,-0.036000000000000004
1670267729.759975,-9.323,-2.342,3.807,0.7616,0.5725,0.0448,-0.163,-0.049,0.006
1670267729.799975,-9.147,-2.442,3.765,0.763,0.5713,0.0523,-0.088,0.023,0.005
1670267729.839975,-9.165000000000001,-2.48,3.698,0.7597,0.5728,0.058100000000000006,-0.06,0.018000000000000002,-0.02
1670267729.879975,-9.148,-2.5540000000000003,3.7640000000000002,0.7597,0.5736,0.0505,-0.082,0.004,-0.017
1670267729.919975,-9.148,-2.508,3.759,0.758,0.5736,0.041600000000000005,-0.085,-0.009000000000000001,-0.001
1670267729.959975,-9.199,-2.508,3.81,0.7591,0.5731,0.041600000000000005,-0.089,-0.007,-0.009000000000000001
1670267729.999975,-9.176,-2.458,3.81,0.761,0.5722,0.043500000000000004,-0.074,-0.012,-0.021
1670267730.039975,-9.14,-2.456,3.787,0.7619,0.5713,0.059800000000000006,-0.059000000000000004,-0.01,-0.005
1670267730.079975,-9.158,-2.521,3.747,0.7599,0.5738,0.0646,-0.063,0.004,0.0
1670267730.1199749,-9.19,-2.503,3.725,0.7615000000000001,0.5743,0.0644,-0.078,0.017,-0.007
1670267730.159975,-9.158,-2.481,3.79,0.7595000000000001,0.5724,0.057800000000000004,-0.083,0.011,-0.003
1670267730.199975,-9.134,-2.483,3.701,0.7439,0.5669000000000001,0.051500000000000004,-0.084,0.01,-0.006
1670267730.239975,-9.193,-2.474,3.773,0.7621,0.5732,0.043500000000000004,-0.08,0.012,-0.01
1670267730.279975,-9.156,-2.491,3.7030000000000003,0.7594000000000001,0.5727,0.051500000000000004,-0.08,0.013000000000000001,-0.013000000000000001
1670267730.319975,-9.113,-2.464,3.614,0.7627,0.5717,0.0458,-0.084,0.009000000000000001,-0.009000000000000001
1670267730.3599749,-9.156,-2.472,3.742,0.7513000000000001,0.5697,0.0453,-0.084,0.013000000000000001,0.001
1670267730.399975,-9.183,-2.447,3.71,0.7567,0.5733,0.0443,-0.077,0.012,0.003
1670267730.439975,-9.167,-2.459,3.6590000000000003,0.758,0.5705,0.0429,-0.084,0.018000000000000002,-0.011
1670267730.479975,-9.176,-2.504,3.761,0.763,0.5742,0.0422,-0.08,0.007,-0.01
1670267730.519975,-9.221,-2.52,3.7600000000000002,0.763,0.5731,0.0417,-0.089,-0.002,-0.006
1670267730.559975,-9.152000000000001,-2.532,3.682,0.7611,0.5725,0.0442,-0.096,-0.001,-0.004
1670267730.5999749,-9.253,-2.394,3.829,0.7603000000000001,0.5739000000000001,0.0439,-0.063,0.024,0.007
1670267730.639975,-9.212,-2.519,3.698,0.7615000000000001,0.5731,0.0422,-0.065,0.033,-0.015
1670267730.679975,-9.172,-2.475,3.745,0.7635000000000001,0.5713,0.0393,-0.078,0.023,-0.02
1670267730.719975,-9.133000000000001,-2.5060000000000002,3.56,0.7644000000000001,0.5722,0.0413,-0.109,0.007,0.006
1670267730.759975,-9.171,-2.464,3.611,0.7643000000000001,0.5723,0.0439,-0.106,-0.002,0.01
1670267730.799974,-9.200000000000001,-2.391,3.741,0.758,0.5748,0.0405,-0.067,0.002,-0.022
1670267730.839974,-9.134,-2.445,3.61,0.7577,0.5699000000000001,0.0439,-0.061,-0.007,-0.017
1670267730.879974,-9.199,-2.503,3.698,0.7616,0.5739000000000001,0.0405,-0.069,0.0,0.004
1670267730.9199739,-9.215,-2.487,3.777,0.7594000000000001,0.5688,0.041100000000000005,-0.075,0.007,-0.002
1670267730.959974,-9.208,-2.452,3.704,0.763,0.5717,0.041,-0.066,0.011,-0.009000000000000001
1670267730.999974,-9.162,-2.465,3.644,0.7636000000000001,0.5723,0.0419,-0.078,0.0,-0.013000000000000001
1670267731.039974,-9.189,-2.466,3.747,0.757,0.5705,0.0417,-0.084,-0.003,-0.009000000000000001
1670267731.079974,-9.173,-2.475,3.692,0.7593000000000001,0.5727,0.041,-0.083,0.001,-0.014
1670267731.119974,-9.203,-2.465,3.632,0.7634000000000001,0.5728,0.0443,-0.091,-0.001,-0.009000000000000001
1670267731.1599739,-9.118,-2.448,3.65,0.7611,0.5717,0.041600000000000005,-0.082,0.0,-0.007
1670267731.199974,-9.183,-2.464,3.6470000000000002,0.7633000000000001,0.5704,0.0397,-0.082,0.0,-0.009000000000000001
1670267731.239974,-9.179,-2.472,3.757,0.7643000000000001,0.5738,0.0427,-0.075,0.008,-0.01
1670267731.279974,-9.168000000000001,-2.475,3.66,0.7653000000000001,0.5725,0.0413,-0.077,0.004,-0.01
1670267731.319974,-9.182,-2.475,3.767,0.7608,0.5697,0.043000000000000003,-0.07200000000000001,-0.002,-0.008
1670267731.359974,-9.15,-2.512,3.72,0.7619,0.5747,0.043500000000000004,-0.073,-0.005,-0.002
1670267731.3999739,-9.26,-2.432,3.7880000000000003,0.7601,0.5742,0.0413,-0.068,0.007,0.007
1670267731.439974,-9.17,-2.505,3.668,0.7618,0.5728,0.0415,-0.069,0.018000000000000002,-0.012
1670267731.479974,-9.167,-2.478,3.733,0.7611,0.5726,0.0424,-0.077,0.014,-0.02
1670267731.519974,-9.182,-2.5,3.717,0.7626000000000001,0.5728,0.0431,-0.092,-0.006,-0.005
1670267731.559974,-9.241,-2.464,3.747,0.7628,0.5719000000000001,0.0407,-0.093,-0.002,0.0
1670267731.599974,-9.153,-2.437,3.6990000000000003,0.7627,0.5716,0.044700000000000004,-0.064,0.007,-0.03
1670267731.6399739,-9.165000000000001,-2.457,3.67,0.7626000000000001,0.5744,0.0438,-0.07,-0.001,-0.018000000000000002
1670267731.679974,-9.165000000000001,-2.494,3.714,0.758,0.5694,0.039400000000000004,-0.07,-0.003,0.0
1670267731.719974,-9.21,-2.472,3.738,0.7583000000000001,0.5725,0.0458,-0.076,0.013000000000000001,-0.002
1670267731.759974,-9.208,-2.473,3.819,0.7615000000000001,0.5717,0.0444,-0.069,0.022,-0.011
1670267731.799974,-9.246,-2.527,3.8360000000000003,0.7628,0.5733,0.0422,-0.096,0.039,0.0
1670267731.839973,-9.17,-2.637,3.68,0.7622,0.5709000000000001,0.0461,-0.2,0.053,0.031
1670267731.879973,-9.194,-2.359,3.686,0.7649,0.5692,0.0436,-0.155,0.016,0.01
1670267731.919973,-9.203,-2.423,3.672,0.7621,0.5703,0.0379,-0.094,0.012,-0.015
1670267731.9599729,-9.208,-2.458,3.681,0.7653000000000001,0.5714,0.0407,-0.065,0.004,-0.019
1670267731.999973,-9.153,-2.513,3.607,0.7632,0.5728,0.040100000000000004,-0.076,-0.008,-0.006
1670267732.039973,-9.253,-2.463,3.682,0.76,0.5714,0.0398,-0.067,-0.009000000000000001,-0.003
1670267732.079973,-9.186,-2.451,3.674,0.7623000000000001,0.5707,0.037700000000000004,-0.059000000000000004,-0.006,-0.013000000000000001
1670267732.119973,-9.231,-2.5220000000000002,3.6670000000000003,0.7621,0.5758,0.040400000000000005,-0.068,0.003,-0.017
1670267732.159973,-9.229000000000001,-2.5020000000000002,3.769,0.7613000000000001,0.5706,0.039400000000000004,-0.069,-0.011,-0.009000000000000001
1670267732.1999729,-9.176,-2.371,3.634,0.765,0.5748,0.0396,-0.066,-0.006,0.009000000000000001
1670267732.239973,-9.242,-2.5,3.686,0.7631,0.5750000000000001,0.038900000000000004,-0.065,0.019,-0.017
1670267732.279973,-9.211,-2.524,3.758,0.7636000000000001,0.5716,0.0373,-0.069,0.017,-0.034
1670267732.319973,-9.178,-2.549,3.6470000000000002,0.7633000000000001,0.5723,0.0397,-0.088,-0.001,-0.019
1670267732.359973,-9.197000000000001,-2.493,3.654,0.7645000000000001,0.5744,0.042800000000000005,-0.09,-0.01,-0.009000000000000001
1670267732.399973,-9.184000000000001,-2.403,3.65,0.7563000000000001,0.5700000000000001,0.041,-0.048,-0.002,-0.016
1670267732.4399729,-9.209,-2.503,3.853,0.7626000000000001,0.5710000000000001,0.041800000000000004,0.012,-0.067,-0.044
1670267732.479973,-9.178,-2.495,3.6750000000000003,0.7643000000000001,0.5716,0.043300000000000005,-0.028,0.0,-0.016
1670267732.519973,-9.165000000000001,-2.505,3.748,0.7635000000000001,0.5735,0.0444,-0.052000000000000005,0.027,-0.008
1670267732.559973,-9.223,-2.496,3.751,0.7619,0.5695,0.042100000000000005,-0.077,-0.001,-0.008
1670267732.599973,-9.15,-2.465,3.7070000000000003,0.7624000000000001,0.5728,0.0425,-0.085,-0.004,-0.009000000000000001
1670267732.639973,-9.221,-2.436,3.721,0.7628,0.5728,0.0407,-0.077,-0.006,-0.02
1670267732.679973,-9.18,-2.473,3.7560000000000002,0.761,0.5706,0.0419,-0.066,-0.007,-0.018000000000000002
1670267732.719973,-9.153,-2.469,3.686,0.7617,0.5734,0.0409,-0.075,-0.003,-0.017
1670267732.759973,-9.163,-2.485,3.765,0.7622,0.5727,0.0444,-0.083,-0.002,-0.01
1670267732.799973,-9.199,-2.486,3.751,0.7619,0.5720000000000001,0.0397,-0.082,0.0,-0.007
1670267732.839973,-9.18,-2.438,3.762,0.7618,0.5739000000000001,0.041800000000000004,-0.069,0.002,-0.004
1670267732.879972,-9.119,-2.459,3.694,0.7615000000000001,0.5697,0.045200000000000004,-0.075,0.006,-0.01
1670267732.919972,-9.171,-2.485,3.73,0.7598,0.5702,0.040100000000000004,-0.068,-0.001,-0.012
1670267732.959972,-9.109,-2.513,3.729,0.761,0.5730000000000001,0.040400000000000005,-0.081,0.0,-0.019
1670267732.9999719,-9.209,-2.427,3.789,0.7607,0.5724,0.043300000000000005,-0.08700000000000001,-0.004,0.006
1670267733.039972,-9.168000000000001,-2.438,3.654,0.7578,0.5737,0.0397,-0.07100000000000001,0.006,0.003
1670267733.079972,-9.112,-2.426,3.665,0.7623000000000001,0.5705,0.0443,-0.055,0.017,-0.028
1670267733.119972,-9.13,-2.515,3.676,0.7603000000000001,0.5695,0.0426,-0.068,0.008,-0.027
1670267733.159972,-9.173,-2.491,3.686,0.7601,0.5686,0.0413,-0.1,-0.002,-0.007
1670267733.199972,-9.194,-2.43,3.7760000000000002,0.7582,0.5725,0.041600000000000005,-0.097,0.0,-0.003
1670267733.2399719,-9.166,-2.5180000000000002,3.8360000000000003,0.7613000000000001,0.5709000000000001,0.0437,-0.064,0.005,-0.021
1670267733.279972,-9.167,-2.476,3.769,0.7629,0.5719000000000001,0.0434,-0.057,-0.003,-0.012
1670267733.319972,-9.124,-2.491,3.729,0.7611,0.5727,0.044700000000000004,-0.065,0.005,-0.003
1670267733.359972,-9.191,-2.494,3.785,0.7613000000000001,0.5705,0.0424,-0.08600000000000001,0.017,-0.008
1670267733.399972,-9.13,-2.467,3.762,0.7586,0.5719000000000001,0.038900000000000004,-0.075,0.022,-0.003
1670267733.439972,-9.132,-2.439,3.712,0.7607,0.5714,0.0375,-0.081,0.012,-0.002
1670267733.479972,-9.203,-2.484,3.75,0.7597,0.5723,0.0529,-0.084,0.02,-0.005
1670267733.519972,-9.182,-2.495,3.762,0.7579,0.5705,0.057600000000000005,-0.075,0.018000000000000002,-0.004
1670267733.559972,-9.182,-2.474,3.708,0.7579,0.5708,0.049800000000000004,-0.083,0.013000000000000001,-0.005
1670267733.599972,-9.192,-2.455,3.725,0.7596,0.5707,0.0459,-0.088,0.009000000000000001,-0.006
1670267733.639972,-9.172,-2.455,3.725,0.7627,0.5707,0.0459,-0.078,0.013000000000000001,0.0
1670267733.679972,-9.187,-2.452,3.668,0.7587,0.5683,0.0438,-0.07200000000000001,0.012,-0.005
1670267733.719972,-9.194,-2.454,3.72,0.7475,0.5655,0.0439,-0.07200000000000001,0.014,-0.013000000000000001
1670267733.759972,-9.208,-2.476,3.6950000000000003,0.7624000000000001,0.5710000000000001,0.0337,-0.07100000000000001,0.008,-0.005
1670267733.799972,-9.174,-2.454,3.68,0.7573000000000001,0.5662,0.0587,-0.08,0.001,-0.012
1670267733.839972,-9.183,-2.498,3.763,0.7596,0.5707,0.0349,-0.081,-0.011,-0.011
1670267733.879972,-9.247,-2.383,3.754,0.7611,0.5732,0.0451,-0.068,0.013000000000000001,-0.003
1670267733.919971,-9.186,-2.494,3.681,0.7618,0.5720000000000001,0.0402,-0.07,0.023,-0.016
1670267733.959971,-9.115,-2.438,3.672,0.7618,0.5698,0.040600000000000004,-0.08,0.007,-0.019
1670267733.999971,-9.155,-2.489,3.689,0.7602,0.5744,0.042,-0.10200000000000001,0.004,-0.004
1670267734.0399709,-9.235,-2.471,3.8040000000000003,0.7621,0.5727,0.0431,-0.081,0.006,-0.005
1670267734.079971,-9.207,-2.3970000000000002,3.6870000000000003,0.7604000000000001,0.5682,0.040600000000000004,-0.066,0.001,-0.024
1670267734.119971,-9.205,-2.453,3.7840000000000003,0.7624000000000001,0.5725,0.0441,-0.065,-0.006,-0.01
1670267734.159971,-9.203,-2.494,3.714,0.763,0.5722,0.0444,-0.077,-0.002,0.006
1670267734.199971,-9.152000000000001,-2.432,3.677,0.7614000000000001,0.5714,0.039400000000000004,-0.073,0.012,-0.004
1670267734.239971,-9.224,-2.488,3.783,0.76,0.5733,0.043000000000000003,-0.068,0.006,-0.006
1670267734.279971,-9.157,-2.476,3.725,0.7464000000000001,0.5691,0.0412,-0.075,0.001,-0.012
1670267734.319971,-9.206,-2.453,3.692,0.7598,0.5695,0.0414,-0.08,0.004,-0.007
1670267734.359971,-9.175,-2.445,3.735,0.7601,0.5700000000000001,0.0483,-0.082,0.001,-0.01
1670267734.399971,-9.176,-2.457,3.6590000000000003,0.7624000000000001,0.5707,0.0415,-0.076,0.0,-0.015
1670267734.439971,-9.163,-2.452,3.705,0.7535000000000001,0.5715,0.042100000000000005,-0.076,-0.001,-0.015
1670267734.479971,-9.178,-2.476,3.728,0.7636000000000001,0.5716,0.0463,-0.07100000000000001,-0.001,-0.01
1670267734.519971,-9.191,-2.467,3.6950000000000003,0.7613000000000001,0.5713,0.0436,-0.078,0.0,-0.01
1670267734.559971,-9.188,-2.463,3.736,0.76,0.5681,0.0402,-0.084,0.003,-0.01
1670267734.599971,-9.120000000000001,-2.439,3.67,0.7639,0.5702,0.0437,-0.078,0.0,-0.014
1670267734.639971,-9.169,-2.49,3.742,0.7606,0.5727,0.043300000000000005,-0.078,0.005,-0.011
1670267734.679971,-9.22,-2.44,3.8080000000000003,0.7608,0.5727,0.0431,-0.045,0.01,0.006
1670267734.719971,-9.269,-2.294,3.8320000000000003,0.7622,0.5716,0.045000000000000005,0.09,0.127,-0.025
1670267734.759971,-9.138,-2.536,3.537,0.7633000000000001,0.5710000000000001,0.0439,0.025,0.084,-0.07200000000000001
1670267734.799971,-9.163,-2.348,3.662,0.7604000000000001,0.5669000000000001,0.04,-0.019,0.05,-0.079
1670267734.839971,-9.128,-2.529,3.622,0.7622,0.5720000000000001,0.043300000000000005,-0.036000000000000004,0.02,-0.057
1670267734.879971,-9.279,-2.49,3.669,0.761,0.5702,0.0455,-0.075,0.005,-0.013000000000000001
1670267734.919971,-9.163,-2.5420000000000003,3.543,0.7588,0.5681,0.0419,-0.10300000000000001,-0.028,0.01
1670267734.95997,-9.226,-2.454,3.723,0.7627,0.5713,0.044000000000000004,-0.093,-0.02,0.009000000000000001
1670267734.99997,-9.211,-2.404,3.6990000000000003,0.7612,0.5703,0.0458,-0.07100000000000001,0.004,-0.01
1670267735.03997,-9.235,-2.464,3.6470000000000002,0.7598,0.5710000000000001,0.0422,-0.067,0.007,-0.01
1670267735.07997,-9.182,-2.435,3.654,0.7619,0.5703,0.0425,-0.076,-0.006,-0.008
1670267735.11997,-9.206,-2.472,3.676,0.7624000000000001,0.5693,0.0449,-0.075,-0.006,0.0
1670267735.15997,-9.168000000000001,-2.442,3.612,0.7613000000000001,0.5718,0.042,-0.07100000000000001,-0.003,-0.007
1670267735.19997,-9.262,-2.4210000000000003,3.811,0.7629,0.5722,0.044700000000000004,-0.068,0.012,-0.008
1670267735.23997,-9.243,-2.496,3.649,0.7609,0.5746,0.046,-0.083,0.011,-0.007
1670267735.27997,-9.168000000000001,-2.453,3.745,0.7574000000000001,0.5706,0.043300000000000005,-0.096,-0.002,-0.009000000000000001
1670267735.31997,-9.231,-2.4250000000000003,3.697,0.7614000000000001,0.5725,0.0451,-0.10300000000000001,0.003,0.002
1670267735.35997,-9.118,-2.475,3.6550000000000002,0.7637,0.5716,0.042,-0.162,-0.037,-0.025
1670267735.39997,-9.238,-2.436,3.66,0.7633000000000001,0.5714,0.041,-0.123,0.008,-0.012
1670267735.43997,-9.225,-2.505,3.708,0.7615000000000001,0.5720000000000001,0.0425,-0.10300000000000001,0.002,-0.007
1670267735.47997,-9.217,-2.507,3.704,0.7624000000000001,0.5734,0.0413,-0.097,-0.017,-0.009000000000000001
1670267735.51997,-9.234,-2.366,3.72,0.7603000000000001,0.5689000000000001,0.0415,-0.069,-0.003,0.007
1670267735.55997,-9.19,-2.476,3.654,0.7606,0.5700000000000001,0.0432,-0.05,0.0,-0.004
1670267735.59997,-9.176,-2.469,3.722,0.762,0.5741,0.0438,-0.054,0.009000000000000001,-0.024
1670267735.63997,-9.184000000000001,-2.548,3.745,0.7611,0.5730000000000001,0.0453,-0.08,0.0,-0.01
1670267735.67997,-9.214,-2.498,3.722,0.7627,0.5710000000000001,0.040400000000000005,-0.10200000000000001,0.0,-0.002
1670267735.71997,-9.174,-2.426,3.735,0.7614000000000001,0.5731,0.0414,-0.076,0.009000000000000001,-0.008
1670267735.75997,-9.189,-2.453,3.653,0.7582,0.5685,0.0432,-0.07200000000000001,0.006,-0.017
1670267735.79997,-9.182,-2.478,3.6990000000000003,0.755,0.5707,0.041800000000000004,-0.067,0.008,-0.007
1670267735.83997,-9.189,-2.466,3.629,0.76,0.5743,0.0432,-0.081,0.018000000000000002,-0.005
1670267735.87997,-9.182,-2.463,3.682,0.7618,0.5720000000000001,0.041,-0.075,0.014,-0.006
1670267735.91997,-9.188,-2.466,3.669,0.7605000000000001,0.5713,0.045200000000000004,-0.076,0.005,-0.005
1670267735.95997,-9.187,-2.44,3.652,0.7647,0.5715,0.042800000000000005,-0.07,0.005,-0.009000000000000001
1670267735.999969,-9.256,-2.478,3.738,0.7601,0.5719000000000001,0.0449,-0.07200000000000001,0.006,-0.011
1670267736.039969,-9.192,-2.458,3.599,0.7622,0.5706,0.0442,-0.08,0.012,-0.005
1670267736.079969,-9.200000000000001,-2.464,3.698,0.7633000000000001,0.5711,0.043500000000000004,-0.076,0.008,-0.009000000000000001
1670267736.119969,-9.184000000000001,-2.402,3.649,0.761,0.5731,0.0412,-0.077,0.003,-0.01
1670267736.159969,-9.214,-2.465,3.6870000000000003,0.7593000000000001,0.5709000000000001,0.043300000000000005,-0.065,0.002,-0.019
1670267736.199969,-9.184000000000001,-2.5220000000000002,3.692,0.7638,0.5711,0.042300000000000004,-0.074,0.008,-0.027
1670267736.239969,-9.158,-2.528,3.697,0.7618,0.5703,0.0429,-0.08700000000000001,-0.01,-0.018000000000000002
1670267736.279969,-9.172,-2.587,3.741,0.7588,0.5710000000000001,0.041100000000000005,-0.114,-0.013000000000000001,-0.004
1670267736.319969,-9.205,-2.472,3.742,0.7637,0.5741,0.0439,-0.112,-0.02,0.007
1670267736.359969,-9.275,-2.336,3.727,0.7602,0.5711,0.0432,-0.082,0.011,0.017
1670267736.399969,-9.141,-2.338,3.6430000000000002,0.7596,0.5708,0.0408,-0.044,0.031,-0.002
1670267736.439969,-9.187,-2.5300000000000002,3.676,0.7596,0.5728,0.0466,-0.029,0.045,-0.028
1670267736.479969,-9.21,-2.555,3.6830000000000003,0.7622,0.5694,0.0424,-0.065,0.009000000000000001,-0.012
1670267736.519969,-9.243,-2.5140000000000002,3.634,0.761,0.5702,0.0412,-0.10200000000000001,-0.005,-0.002
1670267736.559969,-9.135,-2.493,3.662,0.7614000000000001,0.5738,0.042800000000000005,-0.107,-0.012,-0.018000000000000002
1670267736.599969,-9.218,-2.432,3.799,0.7621,0.5726,0.0432,-0.098,-0.018000000000000002,-0.014
1670267736.639969,-9.182,-2.424,3.622,0.7614000000000001,0.5716,0.0419,-0.084,-0.007,-0.008
1670267736.679969,-9.263,-2.445,3.729,0.7627,0.5711,0.0443,-0.078,0.01,-0.008
1670267736.719969,-9.189,-2.451,3.712,0.7625000000000001,0.5755,0.041600000000000005,-0.075,0.009000000000000001,-0.017
1670267736.759969,-9.206,-2.517,3.7,0.7604000000000001,0.5701,0.0425,-0.079,-0.004,-0.013000000000000001
1670267736.799969,-9.17,-2.5260000000000002,3.654,0.7597,0.5690000000000001,0.0441,-0.094,-0.005,-0.022
1670267736.839969,-9.189,-2.52,3.67,0.7622,0.5735,0.0424,-0.089,0.0,-0.011
1670267736.879969,-9.199,-2.504,3.705,0.761,0.5728,0.040400000000000005,-0.095,0.001,-0.009000000000000001
1670267736.9199688,-9.156,-2.478,3.73,0.7644000000000001,0.5717,0.0431,-0.076,0.003,-0.005
1670267736.959969,-9.154,-2.482,3.668,0.7616,0.5722,0.041100000000000005,-0.062,0.0,-0.014
1670267736.999969,-9.242,-2.52,3.6870000000000003,0.7611,0.5723,0.0413,-0.054,0.007,-0.019
1670267737.039968,-9.136000000000001,-2.5060000000000002,3.666,0.7567,0.5709000000000001,0.0505,-0.063,0.001,-0.012
1670267737.079968,-9.186,-2.531,3.662,0.7608,0.5751000000000001,0.0444,-0.079,0.002,-0.007
1670267737.119968,-9.16,-2.5100000000000002,3.666,0.7522000000000001,0.5695,0.037000000000000005,-0.09,-0.004,-0.007
1670267737.159968,-9.263,-2.392,3.739,0.7614000000000001,0.5709000000000001,0.053000000000000005,-0.078,0.001,0.007
1670267737.199968,-9.151,-2.464,3.62,0.7624000000000001,0.5749000000000001,0.023700000000000002,-0.062,0.021,0.001
1670267737.239968,-9.151,-2.474,3.681,0.7624000000000001,0.5723,0.0375,-0.057,0.018000000000000002,-0.017
1670267737.279968,-9.157,-2.474,3.757,0.76,0.5723,0.0375,-0.082,0.002,-0.012
1670267737.319968,-9.236,-2.521,3.757,0.7594000000000001,0.5709000000000001,0.056100000000000004,-0.09,-0.006,-0.001
1670267737.359968,-9.248,-2.484,3.689,0.7624000000000001,0.5765,0.041,-0.081,0.005,-0.014
1670267737.399968,-9.153,-2.521,3.686,0.7596,0.5725,0.035,-0.084,0.0,-0.019
1670267737.439968,-9.121,-2.469,3.6870000000000003,0.7588,0.5706,0.0273,-0.079,-0.002,0.001
1670267737.479968,-9.176,-2.5020000000000002,3.6510000000000002,0.7611,0.5714,0.0529,-0.066,0.012,0.0
1670267737.519968,-9.214,-2.478,3.706,0.7624000000000001,0.5745,0.0505,-0.066,0.022,-0.01
1670267737.559968,-9.204,-2.5460000000000003,3.722,0.7616,0.5695,0.0317,-0.163,0.068,0.04
1670267737.599968,-9.062,-2.801,3.641,0.7629,0.5755,0.039400000000000004,-0.261,0.009000000000000001,0.08700000000000001
1670267737.639968,-9.266,-2.318,3.632,0.749,0.5681,0.0442,-0.182,-0.017,0.059000000000000004
1670267737.679968,-9.182,-2.402,3.575,0.7592,0.5711,0.039400000000000004,-0.14400000000000002,-0.025,0.043000000000000003
1670267737.719968,-9.23,-2.379,3.637,0.7602,0.5728,0.0458,-0.094,-0.015,0.018000000000000002
1670267737.759968,-9.209,-2.403,3.59,0.7628,0.5731,0.036500000000000005,-0.068,-0.001,-0.033
1670267737.799968,-9.216000000000001,-2.406,3.617,0.7495,0.5674,0.0439,-0.035,0.014,-0.03
1670267737.839968,-9.229000000000001,-2.462,3.626,0.7567,0.5708,0.039900000000000005,-0.056,0.0,-0.009000000000000001
1670267737.879968,-9.184000000000001,-2.539,3.668,0.7607,0.5736,0.038,-0.069,-0.004,-0.012
1670267737.919968,-9.236,-2.5140000000000002,3.741,0.7597,0.5710000000000001,0.0368,-0.07200000000000001,0.005,-0.017
1670267737.9599679,-9.142,-2.533,3.67,0.7625000000000001,0.5709000000000001,0.0427,-0.074,-0.001,-0.024
1670267737.999968,-9.174,-2.457,3.616,0.7625000000000001,0.5732,0.0381,-0.07,0.004,0.004
1670267738.039968,-9.212,-2.438,3.717,0.7596,0.5716,0.040100000000000004,-0.056,0.015,-0.012
1670267738.079967,-9.195,-2.456,3.629,0.7636000000000001,0.5711,0.039400000000000004,-0.065,0.018000000000000002,-0.021
1670267738.119967,-9.173,-2.509,3.656,0.7641,0.5727,0.037700000000000004,-0.082,0.0,-0.008
1670267738.159967,-9.242,-2.539,3.6590000000000003,0.7642,0.5704,0.0375,-0.093,0.004,0.0
1670267738.199967,-9.232,-2.433,3.629,0.7607,0.5724,0.0393,-0.07200000000000001,0.013000000000000001,-0.014
1670267738.239967,-9.166,-2.469,3.66,0.7632,0.5735,0.0405,-0.039,-0.01,-0.008
1670267738.279967,-9.195,-2.339,3.676,0.758,0.5676,0.0461,0.034,-0.043000000000000003,-0.025
1670267738.319967,-9.312,-2.596,3.681,0.7635000000000001,0.5738,0.040100000000000004,-0.017,-0.002,-0.005
1670267738.359967,-9.221,-2.464,3.744,0.7612,0.5719000000000001,0.0451,-0.043000000000000003,0.02,-0.015
1670267738.399967,-9.173,-2.463,3.7070000000000003,0.7622,0.5720000000000001,0.0386,-0.066,-0.011,-0.011
1670267738.439967,-9.218,-2.4250000000000003,3.672,0.7642,0.5710000000000001,0.0429,-0.07200000000000001,-0.007,-0.013000000000000001
1670267738.479967,-9.209,-2.459,3.733,0.7621,0.5709000000000001,0.046,-0.083,0.0,-0.023
1670267738.519967,-9.172,-2.453,3.6590000000000003,0.7607,0.5705,0.0413,-0.088,0.005,-0.027
1670267738.559967,-9.175,-2.458,3.693,0.7651,0.5727,0.040100000000000004,-0.08,-0.006,-0.015
1670267738.599967,-9.181000000000001,-2.493,3.6990000000000003,0.7607,0.5735,0.0424,-0.092,0.001,-0.01
1670267738.639967,-9.191,-2.496,3.672,0.7599,0.5731,0.0408,-0.085,0.001,-0.004
1670267738.679967,-9.191,-2.479,3.692,0.7635000000000001,0.5736,0.0426,-0.08,0.004,-0.008
1670267738.719967,-9.173,-2.478,3.706,0.7655000000000001,0.5723,0.043000000000000003,-0.079,-0.001,-0.007
1670267738.7599669,-9.182,-2.501,3.717,0.7619,0.5703,0.0405,-0.078,0.001,-0.008
1670267738.799967,-9.181000000000001,-2.5060000000000002,3.723,0.7612,0.5730000000000001,0.0425,-0.069,0.0,0.0
1670267738.839967,-9.231,-2.4050000000000002,3.786,0.7629,0.5726,0.0431,-0.056,0.008,0.002
1670267738.879967,-9.17,-2.443,3.6910000000000003,0.761,0.5718,0.0417,-0.046,0.016,-0.013000000000000001
1670267738.919967,-9.161,-2.505,3.629,0.7617,0.5706,0.0424,-0.07,0.02,-0.021
1670267738.959967,-9.186,-2.5220000000000002,3.731,0.7652,0.5717,0.0443,-0.092,0.015,-0.005
1670267738.9999669,-9.238,-2.463,3.731,0.761,0.5731,0.0408,-0.091,0.005,0.013000000000000001
1670267739.039967,-9.193,-2.4050000000000002,3.797,0.7621,0.5680000000000001,0.0408,-0.07,0.01,-0.02
1670267739.079967,-9.182,-2.47,3.765,0.7619,0.5716,0.0429,-0.06,0.002,-0.013000000000000001
1670267739.119967,-9.202,-2.515,3.728,0.7624000000000001,0.5694,0.0417,-0.068,0.012,0.001
1670267739.159967,-9.191,-2.488,3.6950000000000003,0.7613000000000001,0.5708,0.041100000000000005,-0.07200000000000001,0.024,0.002
1670267739.199966,-9.17,-2.449,3.613,0.7621,0.5718,0.042100000000000005,-0.078,0.034,0.0
1670267739.239966,-9.187,-2.462,3.716,0.7614000000000001,0.5728,0.0414,-0.078,0.028,0.006
1670267739.279966,-9.177,-2.432,3.552,0.7611,0.5688,0.0393,-0.079,0.028,-0.005
1670267739.319966,-9.246,-2.457,3.676,0.7599,0.5723,0.0415,-0.083,0.016,-0.006
1670267739.359966,-9.179,-2.449,3.581,0.7624000000000001,0.5724,0.0429,-0.088,-0.001,-0.005
1670267739.399966,-9.229000000000001,-2.427,3.602,0.7638,0.5712,0.0409,-0.078,-0.005,-0.009000000000000001
1670267739.439966,-9.245000000000001,-2.439,3.7070000000000003,0.7624000000000001,0.5727,0.0407,-0.07100000000000001,0.0,-0.008
1670267739.479966,-9.261000000000001,-2.472,3.682,0.7615000000000001,0.5724,0.0419,-0.067,-0.001,-0.008
1670267739.519966,-9.248,-2.472,3.69,0.7633000000000001,0.5702,0.0386,-0.07200000000000001,0.003,-0.011
1670267739.5599658,-9.217,-2.422,3.7030000000000003,0.7638,0.5738,0.0438,-0.075,0.0,-0.008
1670267739.599966,-9.208,-2.499,3.769,0.764,0.5714,0.0397,-0.078,0.004,-0.018000000000000002
1670267739.639966,-9.242,-2.441,3.7720000000000002,0.7629,0.5705,0.0378,-0.076,0.0,0.002
1670267739.679966,-9.242,-2.467,3.646,0.765,0.5684,0.040100000000000004,-0.065,0.017,-0.005
1670267739.719966,-9.200000000000001,-2.435,3.681,0.7628,0.5722,0.0408,-0.078,0.018000000000000002,-0.017
1670267739.759966,-9.162,-2.484,3.623,0.7649,0.5686,0.039400000000000004,-0.085,0.001,-0.01
1670267739.7999659,-9.259,-2.458,3.632,0.7671,0.5699000000000001,0.039900000000000005,-0.095,-0.002,-0.007
1670267739.839966,-9.236,-2.403,3.632,0.7611,0.5716,0.039,-0.078,-0.004,-0.008
1670267739.879966,-9.179,-2.491,3.735,0.7613000000000001,0.5711,0.039,-0.076,-0.014,-0.023
1670267739.919966,-9.194,-2.479,3.681,0.7625000000000001,0.5714,0.0397,-0.073,-0.007,-0.009000000000000001
1670267739.959966,-9.248,-2.462,3.74,0.7628,0.5730000000000001,0.043300000000000005,-0.076,-0.002,-0.005
1670267739.999966,-9.185,-2.436,3.6710000000000003,0.7615000000000001,0.5730000000000001,0.040400000000000005,-0.068,0.006,-0.008
1670267740.0399659,-9.184000000000001,-2.451,3.702,0.7633000000000001,0.5711,0.0414,-0.065,0.001,-0.017
1670267740.079966,-9.217,-2.465,3.724,0.7649,0.5732,0.049,-0.07,-0.002,-0.008
1670267740.119966,-9.21,-2.473,3.704,0.7612,0.5719000000000001,0.039400000000000004,-0.084,0.003,-0.012
1670267740.159966,-9.218,-2.467,3.7520000000000002,0.7618,0.5713,0.041,-0.078,0.003,-0.016
1670267740.199966,-9.186,-2.457,3.661,0.7646000000000001,0.5730000000000001,0.044000000000000004,-0.077,0.003,-0.011
1670267740.239965,-9.179,-2.466,3.697,0.7613000000000001,0.5699000000000001,0.0396,-0.082,0.009000000000000001,-0.017
1670267740.279965,-9.215,-2.468,3.709,0.7652,0.5719000000000001,0.0408,-0.075,0.004,-0.009000000000000001
1670267740.319965,-9.22,-2.491,3.736,0.7629,0.5699000000000001,0.046200000000000005,-0.068,0.014,-0.008
1670267740.3599648,-9.201,-2.45,3.7520000000000002,0.7617,0.5687,0.041100000000000005,-0.07,0.008,-0.015
1670267740.399965,-9.258000000000001,-2.508,3.763,0.7607,0.5719000000000001,0.04,-0.057,0.003,-0.008
1670267740.439965,-9.222,-2.283,3.841,0.7633000000000001,0.5718,0.0438,0.03,0.077,0.003
1670267740.479965,-9.081,-2.451,3.495,0.7528,0.5693,0.042800000000000005,0.007,0.081,-0.023
1670267740.519965,-9.107,-2.387,3.519,0.7631,0.5711,0.0451,-0.042,0.038,-0.022
1670267740.559965,-9.248,-2.496,3.726,0.7635000000000001,0.5725,0.0431,-0.083,0.005,-0.016
1670267740.5999649,-9.251,-2.457,3.6310000000000002,0.764,0.5714,0.0413,-0.095,-0.011,-0.015
1670267740.639965,-9.281,-2.383,3.767,0.7655000000000001,0.5694,0.0409,-0.08600000000000001,-0.009000000000000001,-0.009000000000000001
1670267740.679965,-9.19,-2.459,3.629,0.766,0.5722,0.0427,-0.066,-0.004,-0.015
1670267740.719965,-9.254,-2.414,3.709,0.7636000000000001,0.5726,0.0402,-0.065,-0.015,-0.012
1670267740.759965,-9.214,-2.472,3.735,0.7624000000000001,0.5706,0.0329,-0.065,0.002,-0.008
1670267740.799965,-9.217,-2.455,3.712,0.7633000000000001,0.5703,0.0485,-0.07,0.008,-0.014
1670267740.8399649,-9.168000000000001,-2.402,3.665,0.7596,0.5719000000000001,0.049600000000000005,-0.069,0.011,-0.008
1670267740.879965,-9.217,-2.442,3.684,0.7596,0.5677,0.0509,-0.081,-0.002,-0.009000000000000001
1670267740.919965,-9.217,-2.43,3.728,0.7614000000000001,0.5677,0.0324,-0.085,-0.003,-0.01
1670267740.959965,-9.239,-2.43,3.719,0.7632,0.5709000000000001,0.045000000000000005,-0.074,-0.001,-0.016
1670267740.999965,-9.25,-2.466,3.719,0.7597,0.5688,0.045000000000000005,-0.07100000000000001,0.011,-0.011
1670267741.039965,-9.154,-2.4090000000000003,3.626,0.7617,0.5722,0.0485,-0.121,-0.013000000000000001,-0.017
1670267741.0799649,-9.083,-2.446,3.596,0.755,0.5700000000000001,0.0344,-0.168,-0.064,-0.029
1670267741.119965,-9.317,-2.438,3.662,0.7605000000000001,0.5734,0.0482,-0.124,0.0,-0.007
1670267741.159965,-9.165000000000001,-2.415,3.693,0.7533000000000001,0.5652,0.047900000000000005,-0.097,0.003,-0.012
1670267741.199965,-9.178,-2.427,3.726,0.7634000000000001,0.5736,0.0494,-0.08,-0.002,-0.016
1670267741.239965,-9.178,-2.5300000000000002,3.688,0.763,0.5713,0.0448,-0.078,-0.008,-0.014
1670267741.279964,-9.208,-2.505,3.831,0.7603000000000001,0.5730000000000001,0.0402,-0.07100000000000001,-0.014,0.012
1670267741.319964,-9.197000000000001,-2.415,3.704,0.7645000000000001,0.5727,0.0456,-0.06,-0.008,-0.004
1670267741.359964,-9.157,-2.427,3.7720000000000002,0.7643000000000001,0.5739000000000001,0.0468,-0.058,0.004,-0.03
1670267741.3999639,-9.169,-2.487,3.632,0.7605000000000001,0.5718,0.0436,-0.084,0.0,-0.012
1670267741.439964,-9.153,-2.536,3.701,0.7625000000000001,0.5723,0.0429,-0.106,-0.011,-0.002
1670267741.479964,-9.183,-2.457,3.7600000000000002,0.7613000000000001,0.5747,0.0424,-0.089,0.0,-0.012
1670267741.519964,-9.156,-2.45,3.696,0.7598,0.5727,0.0425,-0.075,0.003,-0.016
1670267741.559964,-9.17,-2.467,3.762,0.7632,0.5730000000000001,0.0455,-0.064,0.001,-0.021
1670267741.599964,-9.17,-2.492,3.724,0.7634000000000001,0.5746,0.049100000000000005,-0.07,0.005,-0.002
1670267741.6399639,-9.199,-2.48,3.743,0.7601,0.5732,0.0407,-0.078,0.01,-0.013000000000000001
1670267741.679964,-9.188,-2.479,3.729,0.7613000000000001,0.5729000000000001,0.043300000000000005,-0.082,0.001,-0.009000000000000001
1670267741.719964,-9.175,-2.47,3.7560000000000002,0.748,0.5703,0.046700000000000005,-0.084,0.005,-0.006
1670267741.759964,-9.151,-2.46,3.6510000000000002,0.764,0.5702,0.043300000000000005,-0.07200000000000001,0.009000000000000001,-0.014
1670267741.799964,-9.15,-2.463,3.646,0.7613000000000001,0.5699000000000001,0.0509,-0.074,0.013000000000000001,-0.022
1670267741.839964,-9.144,-2.483,3.668,0.7642,0.5736,0.0451,-0.08,0.01,-0.014
1670267741.8799639,-9.124,-2.474,3.645,0.7615000000000001,0.5736,0.0417,-0.08,0.005,-0.005
1670267741.919964,-9.193,-2.505,3.747,0.7622,0.5729000000000001,0.0442,-0.08,0.005,-0.013000000000000001
1670267741.959964,-9.187,-2.489,3.79,0.7629,0.5727,0.0443,-0.079,0.004,-0.01
1670267741.999964,-9.194,-2.5340000000000003,3.729,0.7587,0.5718,0.0427,-0.074,0.003,-0.015
1670267742.039964,-9.185,-2.496,3.646,0.7628,0.5694,0.042300000000000004,-0.085,0.01,-0.014
1670267742.079964,-9.169,-2.5340000000000003,3.736,0.7618,0.5747,0.043000000000000003,-0.08700000000000001,-0.001,-0.004
1670267742.119964,-9.193,-2.4050000000000002,3.7110000000000003,0.7618,0.5725,0.041,-0.064,0.014,0.009000000000000001
1670267742.159964,-9.163,-2.485,3.686,0.7616,0.5714,0.0415,-0.053,0.022,-0.008
1670267742.199964,-9.152000000000001,-2.489,3.6510000000000002,0.7618,0.5736,0.046,-0.067,0.023,-0.025
1670267742.239964,-9.127,-2.531,3.672,0.7622,0.5731,0.0422,-0.097,0.01,0.0
1670267742.279964,-9.205,-2.495,3.67,0.763,0.5708,0.0407,-0.1,0.011,0.008
1670267742.319963,-9.184000000000001,-2.438,3.713,0.7637,0.5729000000000001,0.045200000000000004,-0.085,0.021,-0.01
1670267742.359963,-9.215,-2.496,3.753,0.7641,0.5714,0.0427,-0.07,0.008,-0.009000000000000001
1670267742.399963,-9.235,-2.493,3.706,0.76,0.5731,0.0397,-0.07100000000000001,0.004,0.001
1670267742.4399629,-9.241,-2.493,3.714,0.7663000000000001,0.5747,0.0441,-0.08600000000000001,0.009000000000000001,-0.001
1670267742.479963,-9.242,-2.46,3.714,0.7614000000000001,0.5755,0.0409,-0.082,0.006,0.001
1670267742.519963,-9.141,-2.439,3.6470000000000002,0.759,0.5709000000000001,0.0385,-0.084,0.0,-0.005
1670267742.559963,-9.228,-2.469,3.641,0.7567,0.5733,0.043300000000000005,-0.074,0.006,-0.01
1670267742.599963,-9.168000000000001,-2.466,3.607,0.7638,0.5706,0.0419,-0.08,0.006,-0.012
1670267742.639963,-9.184000000000001,-2.469,3.586,0.7627,0.5714,0.0448,-0.083,0.009000000000000001,-0.01
1670267742.6799629,-9.214,-2.461,3.658,0.7649,0.5726,0.043300000000000005,-0.083,0.0,-0.006
1670267742.719963,-9.181000000000001,-2.464,3.654,0.7647,0.5705,0.0398,-0.073,-0.001,-0.011
1670267742.759963,-9.17,-2.462,3.665,0.7621,0.5720000000000001,0.039,-0.07100000000000001,-0.006,-0.012
1670267742.799963,-9.199,-2.497,3.6310000000000002,0.7631,0.5720000000000001,0.0426,-0.068,-0.001,-0.007
1670267742.839963,-9.16,-2.439,3.67,0.7613000000000001,0.5723,0.0427,-0.081,-0.013000000000000001,-0.012
1670267742.879963,-9.171,-2.535,3.684,0.7601,0.5729000000000001,0.041100000000000005,-0.083,-0.012,-0.008
1670267742.919963,-9.229000000000001,-2.47,3.778,0.7629,0.5725,0.0405,-0.07200000000000001,-0.007,-0.002
1670267742.959963,-9.233,-2.44,3.728,0.762,0.5728,0.043300000000000005,-0.067,0.016,-0.005
1670267742.999963,-9.164,-2.479,3.694,0.7561,0.5650000000000001,0.0436,-0.061,0.023,-0.021
1670267743.039963,-9.194,-2.52,3.708,0.7625000000000001,0.5736,0.043300000000000005,-0.081,0.008,-0.015
1670267743.079963,-9.194,-2.478,3.6910000000000003,0.7668,0.5752,0.0432,-0.095,-0.005,-0.003
1670267743.119963,-9.247,-2.433,3.789,0.7616,0.5705,0.041600000000000005,-0.075,0.003,-0.002
1670267743.159963,-9.144,-2.484,3.626,0.7616,0.5715,0.0422,-0.064,-0.004,-0.02
1670267743.199963,-9.144,-2.484,3.736,0.7614000000000001,0.5743,0.0441,-0.057,-0.004,-0.007
1670267743.239963,-9.228,-2.605,3.813,0.7589,0.5723,0.0455,-0.098,0.029,0.019
1670267743.279963,-9.248,-2.517,3.611,0.7643000000000001,0.5717,0.039,-0.213,0.047,0.047
1670267743.319963,-9.227,-2.388,3.685,0.7616,0.5740000000000001,0.039,-0.165,0.022,0.03
1670267743.359962,-9.229000000000001,-2.422,3.636,0.7622,0.5724,0.0386,-0.111,0.005,0.014
1670267743.399962,-9.165000000000001,-2.443,3.531,0.7644000000000001,0.5711,0.0397,-0.074,0.002,0.007
1670267743.439962,-9.209,-2.472,3.593,0.7625000000000001,0.5730000000000001,0.0396,-0.077,0.001,0.003
1670267743.4799619,-9.267,-2.493,3.602,0.7649,0.5711,0.035500000000000004,-0.07,0.008,0.0
1670267743.519962,-9.273,-2.473,3.664,0.7638,0.5711,0.0375,-0.074,0.002,0.0
1670267743.559962,-9.232,-2.445,3.6470000000000002,0.7622,0.5725,0.0419,-0.079,0.01,0.004
1670267743.599962,-9.266,-2.44,3.658,0.7626000000000001,0.5716,0.0366,-0.061,0.011,-0.003
1670267743.639962,-9.196,-2.484,3.678,0.765,0.5714,0.0362,-0.07100000000000001,0.005,-0.013000000000000001
1670267743.679962,-9.23,-2.529,3.5780000000000003,0.7652,0.5708,0.0397,-0.073,0.004,-0.022
1670267743.719962,-9.222,-2.46,3.6790000000000003,0.7647,0.5707,0.0397,-0.091,-0.006,-0.01
1670267743.759962,-9.315,-2.383,3.69,0.7636000000000001,0.5719000000000001,0.0374,-0.073,0.006,0.008
1670267743.799962,-9.312,-2.427,3.698,0.7632,0.5725,0.0391,-0.048,0.012,-0.013000000000000001
1670267743.839962,-9.165000000000001,-2.451,3.553,0.7639,0.5700000000000001,0.039900000000000005,-0.058,0.025,-0.025
1670267743.879962,-9.115,-2.2960000000000003,3.634,0.7618,0.5701,0.044000000000000004,-0.024,-0.011,-0.027
1670267743.919962,-9.403,-2.654,3.6950000000000003,0.7635000000000001,0.5725,0.044500000000000005,-0.034,-0.036000000000000004,-0.028
1670267743.959962,-9.224,-2.39,3.774,0.7612,0.5710000000000001,0.0413,-0.048,-0.002,-0.029
1670267743.999962,-9.146,-2.464,3.657,0.7611,0.5703,0.040400000000000005,-0.038,-0.009000000000000001,-0.03
1670267744.039962,-9.178,-2.469,3.6430000000000002,0.763,0.5716,0.0442,-0.063,-0.008,-0.019
1670267744.079962,-9.191,-2.476,3.717,0.7594000000000001,0.5716,0.045000000000000005,-0.076,-0.001,-0.003
1670267744.119962,-9.194,-2.433,3.702,0.7613000000000001,0.5696,0.0407,-0.077,0.006,-0.012
1670267744.159962,-9.147,-2.447,3.684,0.7629,0.5709000000000001,0.0409,-0.073,0.003,-0.014
1670267744.199962,-9.204,-2.467,3.728,0.7661,0.5739000000000001,0.0402,-0.067,0.002,-0.018000000000000002
1670267744.239962,-9.199,-2.45,3.6430000000000002,0.7619,0.5687,0.0386,-0.073,0.008,-0.014
1670267744.279962,-9.182,-2.454,3.694,0.7635000000000001,0.5705,0.042,-0.074,0.004,-0.014
1670267744.319962,-9.159,-2.459,3.702,0.7618,0.5742,0.0438,-0.074,0.003,-0.01
1670267744.359962,-9.18,-2.453,3.677,0.7602,0.5711,0.039900000000000005,-0.074,0.001,-0.014
1670267744.399961,-9.217,-2.456,3.716,0.7661,0.5711,0.0438,-0.077,0.002,-0.015
1670267744.439961,-9.182,-2.435,3.698,0.765,0.5715,0.0371,-0.074,0.006,-0.009000000000000001
1670267744.479961,-9.184000000000001,-2.472,3.728,0.752,0.5667,0.053500000000000006,-0.083,0.005,-0.017
1670267744.5199609,-9.151,-2.485,3.621,0.7632,0.5706,0.0436,-0.078,0.0,-0.019
1670267744.559961,-9.151,-2.466,3.692,0.7632,0.5717,0.051500000000000004,-0.08600000000000001,-0.005,-0.005
1670267744.599961,-9.191,-2.466,3.757,0.7603000000000001,0.5717,0.0424,-0.067,0.001,0.007
1670267744.639961,-9.236,-2.3930000000000002,3.757,0.7592,0.5724,0.0424,-0.061,0.011,-0.002
1670267744.679961,-9.17,-2.4010000000000002,3.614,0.7622,0.5693,0.0339,-0.06,0.021,-0.027
1670267744.719961,-9.159,-2.513,3.708,0.761,0.5730000000000001,0.053700000000000005,-0.08700000000000001,0.009000000000000001,-0.019
1670267744.759961,-9.176,-2.499,3.672,0.7599,0.5720000000000001,0.034800000000000005,-0.10400000000000001,0.0,-0.005
1670267744.799961,-9.223,-2.456,3.733,0.7636000000000001,0.5714,0.058,-0.09,0.001,0.002
1670267744.839961,-9.167,-2.459,3.715,0.7628,0.5739000000000001,0.0333,-0.067,0.001,-0.011
1670267744.799961,-9.183,-2.433,3.7520000000000002,0.7617,0.5701,0.0369,-0.067,0.0,-0.001
1670267744.839961,-9.207,-2.482,3.754,0.7638,0.5729000000000001,0.0409,-0.082,0.008,0.0
1670267744.879961,-9.221,-2.46,3.698,0.7633000000000001,0.5723,0.0438,-0.084,0.023,-0.009000000000000001
1670267744.919961,-9.17,-2.439,3.702,0.7621,0.5735,0.0393,-0.077,0.014,-0.012
1670267744.959961,-9.193,-2.466,3.729,0.7627,0.5711,0.042800000000000005,-0.082,0.005,-0.004
1670267744.999961,-9.245000000000001,-2.469,3.657,0.7531,0.5681,0.045200000000000004,-0.075,0.01,-0.01
1670267745.039961,-9.253,-2.457,3.745,0.7635000000000001,0.5711,0.040400000000000005,-0.09,0.009000000000000001,-0.01
1670267745.079961,-9.168000000000001,-2.439,3.5780000000000003,0.7611,0.5691,0.0489,-0.083,0.006,-0.011
1670267745.119961,-9.244,-2.465,3.774,0.7624000000000001,0.5713,0.0426,-0.076,0.001,-0.015
1670267745.159961,-9.159,-2.455,3.623,0.7505000000000001,0.5706,0.0437,-0.078,-0.002,-0.012
1670267745.199961,-9.21,-2.448,3.664,0.7542,0.5713,0.0432,-0.08,0.0,-0.015
1670267745.239961,-9.227,-2.458,3.731,0.7636000000000001,0.5735,0.0417,-0.073,0.005,-0.013000000000000001
1670267745.279961,-9.188,-2.484,3.6990000000000003,0.7621,0.5715,0.0413,-0.078,-0.001,-0.012
1670267745.319961,-9.237,-2.479,3.722,0.7635000000000001,0.5718,0.041600000000000005,-0.077,-0.001,-0.016
1670267745.359961,-9.124,-2.493,3.6550000000000002,0.7652,0.5720000000000001,0.0436,-0.082,-0.006,0.002
1670267745.399961,-9.303,-2.407,3.753,0.7629,0.5711,0.0397,-0.07,0.016,-0.001
1670267745.43996,-9.164,-2.47,3.6550000000000002,0.7638,0.5700000000000001,0.0397,-0.068,0.024,-0.015
1670267745.47996,-9.181000000000001,-2.481,3.71,0.7602,0.5741,0.0446,-0.077,0.017,-0.021
1670267745.51996,-9.141,-2.467,3.595,0.7647,0.5733,0.0436,-0.099,0.0,-0.004
1670267745.55996,-9.231,-2.48,3.708,0.7611,0.5728,0.0391,-0.089,-0.001,-0.008
1670267745.59996,-9.163,-2.463,3.6550000000000002,0.7634000000000001,0.5733,0.042100000000000005,-0.073,-0.002,-0.02
1670267745.63996,-9.16,-2.454,3.745,0.7576,0.5700000000000001,0.043000000000000003,-0.06,-0.009000000000000001,-0.012
1670267745.67996,-9.172,-2.476,3.6350000000000002,0.7647,0.5720000000000001,0.0413,-0.07,-0.002,-0.009000000000000001
1670267745.71996,-9.204,-2.473,3.722,0.765,0.5719000000000001,0.0425,-0.068,0.009000000000000001,-0.011
1670267745.75996,-9.178,-2.445,3.709,0.7649,0.5722,0.0397,-0.078,0.008,-0.016
1670267745.79996,-9.206,-2.482,3.774,0.7644000000000001,0.5713,0.0398,-0.075,-0.002,-0.016
1670267745.83996,-9.178,-2.498,3.7520000000000002,0.7581,0.5732,0.0437,-0.07100000000000001,0.0,-0.014
1670267745.87996,-9.233,-2.486,3.738,0.7614000000000001,0.5718,0.045200000000000004,-0.084,0.006,-0.016
1670267745.91996,-9.193,-2.488,3.713,0.7632,0.5691,0.0407,-0.076,0.007,-0.004
1670267745.95996,-9.184000000000001,-2.465,3.704,0.7628,0.5685,0.0422,-0.066,0.009000000000000001,-0.01
1670267745.99996,-9.268,-2.498,3.7840000000000003,0.7629,0.5720000000000001,0.0417,-0.064,0.014,-0.002
1670267746.03996,-9.256,-2.3850000000000002,3.713,0.7623000000000001,0.5683,0.0381,0.013000000000000001,0.062,-0.016
1670267746.07996,-9.142,-2.5,3.5620000000000003,0.7634000000000001,0.5714,0.0419,-0.016,0.025,-0.01
1670267746.11996,-9.158,-2.492,3.668,0.7646000000000001,0.5717,0.0409,-0.056,0.016,-0.01
1670267746.15996,-9.173,-2.4090000000000003,3.653,0.7639,0.5723,0.0407,-0.067,0.008,-0.014
1670267746.19996,-9.179,-2.49,3.656,0.7642,0.5717,0.0429,-0.074,-0.004,-0.012
1670267746.23996,-9.223,-2.371,3.654,0.7649,0.5723,0.043000000000000003,-0.063,0.003,0.01
1670267746.27996,-9.17,-2.444,3.5820000000000003,0.763,0.5695,0.043000000000000003,-0.062,0.009000000000000001,-0.008
1670267746.31996,-9.071,-2.363,3.5740000000000003,0.7625000000000001,0.5695,0.0426,-0.063,0.01,-0.027
1670267746.35996,-9.239,-2.481,3.701,0.7638,0.5720000000000001,0.043500000000000004,-0.073,0.005,-0.009000000000000001
1670267746.39996,-9.278,-2.479,3.723,0.7642,0.5709000000000001,0.0438,-0.095,0.0,0.0
1670267746.43996,-9.253,-2.4,3.718,0.7646000000000001,0.5703,0.0412,-0.068,0.002,-0.017
1670267746.479959,-9.199,-2.433,3.706,0.7631,0.5715,0.047400000000000005,-0.062,-0.001,-0.027
1670267746.519959,-9.239,-2.446,3.7680000000000002,0.7572,0.5713,0.043500000000000004,-0.073,-0.007,0.0
1670267746.559959,-9.185,-2.402,3.714,0.764,0.5707,0.043000000000000003,-0.076,-0.006,-0.008
1670267746.599959,-9.178,-2.416,3.6670000000000003,0.7648,0.5711,0.0439,-0.07100000000000001,0.007,-0.01
1670267746.639959,-9.127,-2.447,3.698,0.7602,0.5710000000000001,0.0402,-0.08700000000000001,0.0,-0.015
1670267746.679959,-9.121,-2.466,3.681,0.7636000000000001,0.5727,0.045700000000000005,-0.14300000000000002,-0.052000000000000005,-0.016
1670267746.719959,-9.262,-2.439,3.716,0.766,0.5733,0.0454,-0.13,-0.002,-0.006
1670267746.759959,-9.196,-2.45,3.777,0.7631,0.5716,0.0422,-0.109,0.01,-0.007
1670267746.799959,-9.233,-2.428,3.656,0.7638,0.5712,0.0422,-0.067,-0.002,-0.013000000000000001
1670267746.839959,-9.23,-2.482,3.795,0.7665000000000001,0.5719000000000001,0.044000000000000004,-0.067,0.0,-0.014
1670267746.879959,-9.167,-2.468,3.616,0.7619,0.5705,0.0432,-0.068,-0.006,0.001
1670267746.919959,-9.218,-2.472,3.8080000000000003,0.7636000000000001,0.5708,0.042100000000000005,-0.077,-0.002,-0.006
1670267746.959959,-9.175,-2.454,3.743,0.765,0.5741,0.0451,-0.07100000000000001,0.003,-0.012
1670267746.999959,-9.152000000000001,-2.433,3.722,0.7626000000000001,0.5726,0.0438,-0.074,0.004,-0.009000000000000001
1670267747.039959,-9.165000000000001,-2.5460000000000003,3.754,0.7638,0.5715,0.0429,-0.082,0.011,-0.012
1670267747.079959,-9.212,-2.43,3.819,0.7652,0.5735,0.0422,-0.09,-0.001,0.006
1670267747.119959,-9.225,-2.4210000000000003,3.725,0.7615000000000001,0.5722,0.0413,-0.07,0.011,0.009000000000000001
1670267747.159959,-9.114,-2.398,3.646,0.7625000000000001,0.5733,0.0431,-0.057,0.021,-0.023
1670267747.199959,-9.22,-2.508,3.701,0.764,0.5737,0.0449,-0.079,0.019,-0.028
1670267747.239959,-9.162,-2.5020000000000002,3.6750000000000003,0.7608,0.5747,0.0441,-0.10400000000000001,0.005,0.004
1670267747.279959,-9.217,-2.3970000000000002,3.7,0.7649,0.5721,0.0419,-0.10200000000000001,0.006,0.004
1670267747.319959,-9.166,-2.479,3.6470000000000002,0.764,0.5722,0.0438,-0.069,0.005,-0.021
1670267747.359959,-9.188,-2.451,3.723,0.7613000000000001,0.5745,0.045700000000000005,-0.07100000000000001,-0.006,-0.021
1670267747.3999588,-9.199,-2.487,3.714,0.7611,0.5721,0.0397,-0.079,-0.005,-0.009000000000000001
1670267747.439959,-9.268,-2.488,3.7960000000000003,0.7646000000000001,0.5738,0.0437,-0.084,0.0,-0.009000000000000001
1670267747.479959,-9.17,-2.466,3.7720000000000002,0.761,0.5713,0.043300000000000005,-0.079,0.009000000000000001,-0.009000000000000001
1670267747.519958,-9.157,-2.461,3.6630000000000003,0.7622,0.5689000000000001,0.0414,-0.07,-0.002,-0.009000000000000001
1670267747.559958,-9.207,-2.468,3.733,0.7663000000000001,0.5755,0.0438,-0.073,0.0,-0.001
1670267747.599958,-9.18,-2.479,3.693,0.7633000000000001,0.5741,0.043500000000000004,-0.077,0.012,-0.011
1670267747.639958,-9.15,-2.433,3.6510000000000002,0.7624000000000001,0.5724,0.0419,-0.075,0.007,-0.009000000000000001
1670267747.679958,-9.16,-2.451,3.673,0.7643000000000001,0.5758,0.046400000000000004,-0.074,0.003,-0.01
1670267747.719958,-9.148,-2.481,3.714,0.7636000000000001,0.5736,0.0427,-0.073,-0.005,-0.006
1670267747.759958,-9.175,-2.473,3.696,0.7603000000000001,0.5697,0.039900000000000005,-0.074,0.003,-0.008
1670267747.799958,-9.175,-2.463,3.735,0.765,0.5740000000000001,0.0431,-0.076,0.005,-0.013000000000000001
1670267747.839958,-9.197000000000001,-2.472,3.736,0.7518,0.5698,0.054200000000000005,-0.076,0.012,-0.011
1670267747.879958,-9.173,-2.475,3.71,0.7619,0.5696,0.044000000000000004,-0.075,0.009000000000000001,-0.01
1670267747.919958,-9.151,-2.517,3.748,0.7658,0.5739000000000001,0.041600000000000005,-0.08600000000000001,0.006,-0.011
1670267747.959958,-9.275,-2.4010000000000002,3.742,0.765,0.5722,0.0449,-0.074,0.0,0.015
1670267747.999958,-9.151,-2.446,3.722,0.7619,0.5699000000000001,0.0422,-0.065,0.012,-0.001
1670267748.039958,-9.175,-2.508,3.697,0.7652,0.5720000000000001,0.049,-0.064,0.026000000000000002,-0.024
1670267748.079958,-9.144,-2.501,3.694,0.7655000000000001,0.5735,0.0492,-0.098,0.009000000000000001,-0.011
1670267748.119958,-9.23,-2.45,3.718,0.7621,0.5713,0.0328,-0.113,-0.002,0.005
1670267748.159958,-9.23,-2.42,3.717,0.7621,0.5708,0.025500000000000002,-0.08600000000000001,0.002,-0.009000000000000001
1670267748.1999578,-9.163,-2.42,3.769,0.7641,0.5708,0.0296,-0.069,0.002,-0.022
1670267748.239958,-9.212,-2.475,3.769,0.7621,0.5731,0.0296,-0.064,0.001,-0.01
1670267748.279958,-9.18,-2.503,3.722,0.76,0.5700000000000001,0.031100000000000003,-0.079,0.005,-0.004
1670267748.319958,-9.156,-2.453,3.6430000000000002,0.7653000000000001,0.5692,0.042800000000000005,-0.085,0.02,-0.008
1670267748.359958,-9.217,-2.444,3.75,0.7617,0.5732,0.023,-0.083,0.015,-0.007
1670267748.399958,-9.202,-2.483,3.692,0.7589,0.5691,0.0327,-0.085,0.007,-0.006
1670267748.4399579,-9.199,-2.47,3.7070000000000003,0.7492000000000001,0.5702,0.032100000000000004,-0.083,0.012,-0.013000000000000001
1670267748.479958,-9.165000000000001,-2.454,3.632,0.7658,0.5724,0.035,-0.08600000000000001,0.011,-0.011
1670267748.519958,-9.171,-2.487,3.6350000000000002,0.756,0.5643,0.0521,-0.08600000000000001,0.004,-0.01
1670267748.559958,-9.185,-2.467,3.6950000000000003,0.7596,0.5730000000000001,0.041,-0.083,0.001,-0.014
1670267748.599958,-9.152000000000001,-2.481,3.653,0.7641,0.5727,0.0458,-0.08,0.006,-0.009000000000000001
1670267748.639957,-9.224,-2.482,3.722,0.7608,0.5715,0.0437,-0.083,0.01,-0.008
1670267748.679957,-9.184000000000001,-2.47,3.6790000000000003,0.76,0.5723,0.0409,-0.078,0.002,-0.007
1670267748.719957,-9.168000000000001,-2.492,3.649,0.7657,0.5754,0.042800000000000005,-0.07100000000000001,0.003,-0.011
1670267748.759957,-9.126,-2.428,3.645,0.7618,0.5731,0.0413,-0.074,0.0,-0.012
1670267748.799957,-9.15,-2.504,3.656,0.7636000000000001,0.5716,0.0429,-0.08,-0.01,-0.01
1670267748.839957,-9.343,-2.527,3.853,0.7671,0.5763,0.0453,-0.139,0.07200000000000001,0.029
1670267748.879957,-9.211,-2.71,3.7680000000000002,0.7643000000000001,0.5750000000000001,0.0414,-0.17,0.043000000000000003,0.021
1670267748.919957,-9.148,-2.341,3.605,0.7641,0.5712,0.0374,-0.114,0.028,-0.018000000000000002
1670267748.959957,-9.15,-2.488,3.5180000000000002,0.7661,0.5731,0.0419,-0.10400000000000001,0.0,-0.007
1670267748.9999568,-9.223,-2.474,3.656,0.7613000000000001,0.5720000000000001,0.039900000000000005,-0.098,-0.004,-0.005
1670267749.039957,-9.275,-2.487,3.698,0.7631,0.5716,0.0369,-0.078,-0.001,-0.022
1670267749.079957,-9.196,-2.517,3.617,0.7534000000000001,0.5705,0.0476,-0.067,-0.004,-0.014
1670267749.119957,-9.196,-2.5060000000000002,3.661,0.7619,0.5722,0.038700000000000005,-0.07,0.001,-0.005
1670267749.159957,-9.189,-2.491,3.629,0.7633000000000001,0.5716,0.038200000000000005,-0.076,0.005,-0.006
1670267749.199957,-9.242,-2.474,3.614,0.7655000000000001,0.5746,0.0429,-0.075,0.012,-0.006
1670267749.2399569,-9.267,-2.5020000000000002,3.709,0.7678,0.5738,0.0408,-0.074,0.007,-0.005
1670267749.279957,-9.176,-2.462,3.629,0.7646000000000001,0.5727,0.0371,-0.074,0.011,-0.013000000000000001
1670267749.319957,-9.236,-2.525,3.65,0.7653000000000001,0.5747,0.039,-0.074,0.003,-0.016
1670267749.359957,-9.203,-2.456,3.6470000000000002,0.7644000000000001,0.5749000000000001,0.040600000000000004,-0.073,0.006,-0.009000000000000001
1670267749.399957,-9.203,-2.489,3.686,0.7607,0.5712,0.0361,-0.068,-0.005,0.001
1670267749.439957,-9.227,-2.463,3.6310000000000002,0.7679,0.5737,0.0417,-0.022,-0.025,-0.015
1670267749.4799569,-9.124,-2.357,3.59,0.7651,0.5731,0.0396,0.023,-0.055,-0.038
1670267749.519957,-9.236,-2.545,3.619,0.7612,0.5719000000000001,0.0385,-0.027,-0.005,-0.014
1670267749.559957,-9.157,-2.467,3.717,0.7652,0.5728,0.0426,-0.043000000000000003,0.014,-0.011
1670267749.599957,-9.181000000000001,-2.515,3.66,0.7634000000000001,0.5714,0.0432,-0.065,-0.013000000000000001,-0.011
1670267749.639957,-9.188,-2.532,3.726,0.762,0.5706,0.0395,-0.078,-0.012,-0.012
1670267749.679956,-9.239,-2.493,3.769,0.7666000000000001,0.5739000000000001,0.0429,-0.079,-0.005,0.0
1670267749.719956,-9.206,-2.42,3.74,0.7643000000000001,0.5753,0.042100000000000005,-0.053,0.01,-0.005
1670267749.759956,-9.189,-2.466,3.716,0.7637,0.5695,0.0432,-0.05,0.021,-0.01
1670267749.7999558,-9.139,-2.479,3.68,0.7654000000000001,0.5695,0.043300000000000005,-0.07,0.012,-0.016
1670267749.839956,-9.16,-2.504,3.653,0.7643000000000001,0.5750000000000001,0.045700000000000005,-0.092,0.003,-0.003
1670267749.879956,-9.209,-2.443,3.713,0.7598,0.5738,0.041600000000000005,-0.096,0.001,-0.002
1670267749.919956,-9.181000000000001,-2.472,3.693,0.7608,0.5700000000000001,0.0459,-0.08,0.006,-0.024
1670267749.959956,-9.16,-2.457,3.706,0.7608,0.5722,0.0458,-0.07100000000000001,0.0,-0.014
1670267749.999956,-9.179,-2.499,3.757,0.7606,0.5710000000000001,0.04,-0.069,0.004,-0.005
1670267750.0399559,-9.203,-2.494,3.702,0.7619,0.5726,0.0415,-0.083,0.013000000000000001,-0.007
1670267750.079956,-9.193,-2.453,3.716,0.7627,0.5746,0.0442,-0.079,0.015,-0.006
1670267750.119956,-9.147,-2.46,3.6350000000000002,0.76,0.5710000000000001,0.041100000000000005,-0.079,0.01,-0.004
1670267750.159956,-9.16,-2.453,3.65,0.7631,0.5716,0.041800000000000004,-0.07200000000000001,0.007,-0.014
1670267750.199956,-9.211,-2.489,3.75,0.764,0.5750000000000001,0.041600000000000005,-0.074,0.006,-0.009000000000000001
1670267750.239956,-9.165000000000001,-2.487,3.644,0.7631,0.5695,0.040100000000000004,-0.085,-0.003,-0.013000000000000001
1670267750.2799559,-9.142,-2.457,3.646,0.7641,0.5716,0.0386,-0.078,-0.006,-0.014
1670267750.319956,-9.201,-2.489,3.736,0.7626000000000001,0.5743,0.0468,-0.073,-0.005,-0.012
1670267750.359956,-9.174,-2.47,3.745,0.76,0.5728,0.040400000000000005,-0.067,0.0,-0.014
1670267750.399956,-9.175,-2.481,3.674,0.7621,0.5697,0.041,-0.075,-0.003,-0.015
1670267750.439956,-9.142,-2.469,3.692,0.7619,0.5753,0.0441,-0.07100000000000001,0.001,-0.013000000000000001
1670267750.479956,-9.199,-2.481,3.734,0.7597,0.5735,0.042100000000000005,-0.082,0.001,-0.01
1670267750.5199559,-9.179,-2.5460000000000003,3.728,0.7612,0.5738,0.0392,-0.09,-0.004,-0.01
1670267750.559956,-9.169,-2.3890000000000002,3.688,0.7621,0.5736,0.0509,-0.081,-0.002,0.003
1670267750.599956,-9.211,-2.491,3.759,0.7605000000000001,0.5713,0.0454,-0.06,0.006,-0.008
1670267750.639956,-9.103,-2.45,3.626,0.7599,0.5714,0.040600000000000004,-0.062,0.017,-0.027
1670267750.679956,-9.142,-2.5260000000000002,3.6710000000000003,0.7627,0.5731,0.0434,-0.081,0.003,-0.021
1670267750.719955,-9.225,-2.505,3.766,0.7598,0.5749000000000001,0.043300000000000005,-0.098,0.001,0.0
1670267750.759955,-9.217,-2.439,3.852,0.7605000000000001,0.5704,0.040100000000000004,-0.08,0.006,-0.007
1670267750.799955,-9.165000000000001,-2.485,3.661,0.7627,0.5742,0.043300000000000005,-0.07100000000000001,0.004,-0.019
1670267750.8399549,-9.176,-2.509,3.7680000000000002,0.7598,0.5759000000000001,0.043000000000000003,-0.066,0.0,-0.007
1670267750.879955,-9.218,-2.492,3.743,0.7607,0.5727,0.043300000000000005,-0.079,0.011,-0.001
1670267750.919955,-9.176,-2.442,3.759,0.7635000000000001,0.5728,0.0454,-0.081,0.015,-0.005
1670267750.959955,-9.173,-2.494,3.736,0.76,0.5716,0.042100000000000005,-0.066,0.014,-0.012
1670267750.999955,-9.172,-2.464,3.712,0.7597,0.5721,0.0396,-0.085,0.007,-0.005
1670267751.039955,-9.201,-2.471,3.738,0.7619,0.5720000000000001,0.043000000000000003,-0.084,0.016,-0.005
1670267751.0799549,-9.154,-2.466,3.708,0.7632,0.5713,0.0424,-0.085,0.012,-0.01
1670267751.119955,-9.219,-2.5020000000000002,3.762,0.7592,0.5705,0.040400000000000005,-0.084,0.008,-0.009000000000000001
1670267751.159955,-9.197000000000001,-2.462,3.688,0.7647,0.5744,0.0415,-0.081,0.002,-0.013000000000000001
1670267751.199955,-9.176,-2.472,3.674,0.7602,0.5719000000000001,0.0446,-0.077,0.003,-0.009000000000000001
1670267751.239955,-9.178,-2.476,3.678,0.7611,0.5699000000000001,0.0429,-0.081,-0.001,-0.012
1670267751.279955,-9.212,-2.475,3.819,0.7636000000000001,0.5741,0.0415,-0.077,0.0,-0.01
1670267751.3199549,-9.175,-2.517,3.705,0.7631,0.5732,0.0427,-0.081,0.004,-0.018000000000000002
1670267751.359955,-9.213000000000001,-2.489,3.725,0.7578,0.5697,0.043500000000000004,-0.083,-0.004,-0.013000000000000001
1670267751.399955,-9.132,-2.532,3.713,0.7628,0.5717,0.0408,-0.09,-0.005,-0.015
1670267751.439955,-9.264,-2.411,3.728,0.7595000000000001,0.5780000000000001,0.0476,-0.079,-0.002,0.01
