timestamp,acc_x,acc_y,acc_z,magn_x,magn_y,magn_z,gyro_x,gyro_y,gyro_z
1670264231.08,-9.421,-0.7000000000000001,4.299,0.12660000000000002,0.7553000000000001,0.1723,0.013000000000000001,-0.012,0.003
1670264231.12,-9.416,-0.682,4.338,0.1278,0.7559,0.1698,0.037,-0.009000000000000001,-0.021
1670264231.16,-9.411,-0.742,4.368,0.1275,0.7537,0.1705,0.031,-0.02,-0.01
1670264231.2,-9.346,-0.775,4.345,0.1288,0.756,0.17020000000000002,0.008,-0.029,-0.01
1670264231.24,-9.336,-0.68,4.346,0.1275,0.757,0.17420000000000002,0.026000000000000002,-0.023,-0.012
1670264231.28,-9.501,-0.741,4.335,0.1252,0.7527,0.17470000000000002,0.029,0.0,-0.011
1670264231.32,-9.382,-0.707,4.333,0.1278,0.7559,0.1726,0.013000000000000001,-0.004,0.002
1670264231.36,-9.384,-0.727,4.369,0.1247,0.7558,0.17200000000000001,0.018000000000000002,-0.023,0.0
1670264231.4,-9.418000000000001,-0.666,4.364,0.1264,0.7543000000000001,0.1709,0.021,-0.022,-0.005
1670264231.44,-9.415000000000001,-0.677,4.311,0.13040000000000002,0.7541,0.1723,0.043000000000000003,-0.017,-0.014
1670264231.48,-9.370000000000001,-0.726,4.337,0.1259,0.7531,0.17,0.028,-0.02,-0.012
1670264231.52,-9.367,-0.738,4.341,0.1247,0.7559,0.1704,0.016,-0.029,-0.02
1670264231.559999,-9.449,-0.764,4.248,0.12860000000000002,0.7572,0.1708,-0.005,-0.024,-0.01
1670264231.599999,-9.434000000000001,-0.727,4.282,0.12050000000000001,0.7533000000000001,0.17200000000000001,0.01,-0.017,-0.011
1670264231.639999,-9.406,-0.717,4.259,0.12610000000000002,0.7533000000000001,0.1705,0.019,-0.009000000000000001,-0.011
1670264231.6799989,-9.424,-0.6990000000000001,4.299,0.1217,0.7541,0.1751,0.024,-0.021,-0.013000000000000001
1670264231.719999,-9.434000000000001,-0.719,4.284,0.1263,0.7527,0.1719,0.026000000000000002,-0.021,-0.012
1670264231.759999,-9.447000000000001,-0.729,4.378,0.1247,0.7544000000000001,0.1905,0.013000000000000001,-0.019,-0.006
1670264231.799999,-9.375,-0.718,4.341,0.1267,0.7552,0.15,0.014,-0.023,-0.017
1670264231.839999,-9.385,-0.736,4.3180000000000005,0.1247,0.755,0.1705,0.007,-0.018000000000000002,-0.005
1670264231.879999,-9.391,-0.714,4.339,0.12480000000000001,0.7548,0.1743,0.009000000000000001,-0.018000000000000002,-0.011
1670264231.919999,-9.412,-0.718,4.287,0.1263,0.7549,0.169,0.009000000000000001,-0.02,-0.012
1670264231.959999,-9.398,-0.725,4.324,0.1269,0.7556,0.1718,0.018000000000000002,-0.015,-0.011
1670264231.999999,-9.397,-0.71,4.314,0.1252,0.7557,0.1699,0.023,-0.026000000000000002,-0.013000000000000001
1670264232.039999,-9.432,-0.717,4.322,0.12250000000000001,0.7524000000000001,0.1729,0.021,-0.027,-0.007
1670264232.079999,-9.417,-0.717,4.304,0.1273,0.7588,0.1726,0.022,-0.017,-0.011
1670264232.119999,-9.391,-0.73,4.357,0.1269,0.7578,0.1724,0.027,-0.022,-0.018000000000000002
1670264232.159999,-9.388,-0.782,4.348,0.1242,0.7532,0.1724,0.021,-0.014,-0.015
1670264232.199999,-9.447000000000001,-0.662,4.449,0.12710000000000002,0.7566,0.1729,0.036000000000000004,-0.021,-0.014
1670264232.239999,-9.438,-0.6970000000000001,4.282,0.1259,0.752,0.17320000000000002,0.032,-0.007,0.0
1670264232.279999,-9.41,-0.796,4.249,0.1247,0.7544000000000001,0.1718,0.027,-0.004,-0.021
1670264232.319999,-9.32,-0.711,4.385,0.1287,0.7564000000000001,0.1724,0.009000000000000001,-0.012,0.002
1670264232.359999,-9.417,-0.735,4.361,0.1255,0.7561,0.17220000000000002,0.001,-0.011,0.003
1670264232.399999,-9.402000000000001,-0.654,4.376,0.1247,0.7544000000000001,0.1694,0.02,0.0,-0.009000000000000001
1670264232.439999,-9.447000000000001,-0.753,4.263,0.12510000000000002,0.7556,0.1718,0.029,-0.006,-0.006
1670264232.479999,-9.395,-0.744,4.337,0.1258,0.7541,0.1724,0.011,-0.018000000000000002,-0.007
1670264232.519999,-9.418000000000001,-0.736,4.3180000000000005,0.1258,0.755,0.17070000000000002,0.011,-0.025,-0.02
1670264232.559999,-9.448,-0.662,4.352,0.1272,0.7558,0.171,0.012,-0.022,-0.01
1670264232.599998,-9.416,-0.753,4.378,0.12390000000000001,0.752,0.1704,0.02,-0.002,-0.004
1670264232.639998,-9.39,-0.744,4.258,0.1264,0.7561,0.1706,0.01,0.001,0.003
1670264232.679998,-9.397,-0.714,4.246,0.1273,0.7536,0.1714,0.008,-0.016,0.003
1670264232.719998,-9.397,-0.6940000000000001,4.3260000000000005,0.1232,0.7536,0.17120000000000002,0.027,-0.016,-0.007
1670264232.759998,-9.436,-0.715,4.381,0.12710000000000002,0.7541,0.1685,0.034,-0.013000000000000001,-0.004
1670264232.799998,-9.424,-0.706,4.257,0.12660000000000002,0.7575000000000001,0.1723,0.012,-0.003,0.003
1670264232.839998,-9.455,-0.73,4.277,0.12430000000000001,0.7525000000000001,0.171,0.014,-0.014,-0.001
1670264232.879998,-9.394,-0.6900000000000001,4.315,0.12760000000000002,0.7543000000000001,0.1713,0.023,-0.014,-0.006
1670264232.919998,-9.391,-0.732,4.329,0.1297,0.7554000000000001,0.17250000000000001,0.023,-0.015,-0.011
1670264232.959998,-9.421,-0.677,4.337,0.12440000000000001,0.7531,0.17070000000000002,0.024,-0.022,-0.004
1670264232.999998,-9.396,-0.7000000000000001,4.306,0.1272,0.7522000000000001,0.169,0.033,-0.017,-0.006
1670264233.039998,-9.416,-0.679,4.324,0.1269,0.753,0.1721,0.03,-0.019,-0.008
1670264233.079998,-9.381,-0.7030000000000001,4.308,0.12440000000000001,0.7553000000000001,0.1665,0.045,-0.017,-0.023
1670264233.119998,-9.43,-0.639,4.33,0.11850000000000001,0.7544000000000001,0.1709,0.05,-0.019,-0.04
1670264233.159998,-9.414,-0.835,4.297,0.1278,0.7546,0.17200000000000001,-0.005,-0.023,0.005
1670264233.199998,-9.397,-0.684,4.369,0.12350000000000001,0.7524000000000001,0.1773,0.012,-0.028,-0.02
1670264233.239998,-9.466000000000001,-0.616,4.363,0.1306,0.7563000000000001,0.1719,0.116,0.03,-0.048
1670264233.279998,-9.49,-0.553,4.4190000000000005,0.1272,0.7544000000000001,0.17350000000000002,0.23800000000000002,0.094,-0.051000000000000004
1670264233.319998,-9.427,-0.687,4.303,0.126,0.7513000000000001,0.17120000000000002,0.257,0.084,-0.038
1670264233.359998,-9.457,-0.728,4.179,0.1264,0.7529,0.1729,0.10300000000000001,0.0,0.012
1670264233.399998,-9.455,-0.779,4.113,0.128,0.7507,0.1772,0.029,-0.036000000000000004,0.022
1670264233.439998,-9.367,-0.577,4.203,0.11420000000000001,0.7459,0.18230000000000002,0.021,-0.07,-0.024
1670264233.479998,-9.394,-0.541,4.357,0.1257,0.7488,0.1779,0.007,-0.076,-0.029
1670264233.519998,-9.359,-0.616,4.364,0.1258,0.7471,0.1763,-0.006,-0.083,-0.029
1670264233.559998,-9.439,-0.627,4.303,0.1241,0.7509,0.1762,-0.006,-0.047,-0.004
1670264233.599998,-9.515,-0.556,4.375,0.1247,0.7511,0.1584,0.025,-0.028,-0.008
1670264233.639997,-9.39,-0.5760000000000001,4.476,0.1216,0.7514000000000001,0.1862,0.03,-0.03,-0.043000000000000003
1670264233.679997,-9.436,-0.6910000000000001,4.396,0.11180000000000001,0.747,0.17120000000000002,-0.017,-0.035,0.009000000000000001
1670264233.719997,-9.403,-0.508,4.408,0.1222,0.7497,0.19110000000000002,0.001,-0.037,-0.001
1670264233.759997,-9.416,-0.63,4.308,0.1233,0.7495,0.18000000000000002,0.042,-0.038,-0.031
1670264233.799997,-9.445,-0.679,4.38,0.1257,0.7529,0.1768,0.002,-0.033,0.002
1670264233.839997,-9.339,-0.515,4.352,0.1198,0.7519,0.1741,0.015,-0.031,-0.018000000000000002
1670264233.879997,-9.398,-0.672,4.381,0.12350000000000001,0.7506,0.1768,0.016,-0.033,-0.028
1670264233.919997,-9.49,-0.662,4.351,0.12100000000000001,0.7517,0.18280000000000002,0.0,-0.021,0.006
1670264233.959997,-9.384,-0.583,4.446,0.1221,0.747,0.1761,0.017,0.011,-0.004
1670264233.999997,-9.212,-0.907,4.2540000000000004,0.12610000000000002,0.7491,0.1777,-0.092,-0.055,-0.029
1670264234.039997,-9.492,-0.651,4.382,0.1217,0.7521,0.1787,-0.219,-0.17,-0.012
1670264234.079997,-9.397,-0.51,4.5440000000000005,0.1222,0.7535000000000001,0.1748,-0.082,-0.04,-0.031
1670264234.119997,-9.276,-0.802,4.361,0.125,0.7562,0.1774,-0.018000000000000002,-0.034,-0.034
1670264234.159997,-9.396,-0.852,4.2940000000000005,0.1199,0.7563000000000001,0.1746,-0.053,-0.039,0.0
1670264234.199997,-9.395,-0.738,4.382,0.12090000000000001,0.7547,0.1721,-0.048,-0.018000000000000002,0.0
1670264234.239997,-9.283,-0.6980000000000001,4.534,0.12380000000000001,0.7561,0.1748,-0.005,-0.002,-0.008
1670264234.279997,-9.363,-0.809,4.431,0.1237,0.7566,0.17370000000000002,0.011,-0.014,-0.005
1670264234.319997,-9.372,-0.745,4.449,0.1216,0.7552,0.17270000000000002,0.019,-0.009000000000000001,0.004
1670264234.359997,-9.304,-0.767,4.4750000000000005,0.1237,0.7559,0.1754,0.031,-0.013000000000000001,-0.013000000000000001
1670264234.399997,-9.361,-0.748,4.478,0.1212,0.756,0.1767,0.032,-0.021,-0.015
1670264234.439997,-9.312,-0.797,4.3950000000000005,0.1241,0.7537,0.1749,0.011,-0.013000000000000001,0.0
1670264234.479997,-9.338000000000001,-0.758,4.4270000000000005,0.1206,0.7578,0.1754,0.0,-0.012,-0.009000000000000001
1670264234.519997,-9.346,-0.756,4.421,0.1223,0.7559,0.17350000000000002,0.009000000000000001,-0.021,-0.016
1670264234.5599968,-9.34,-0.779,4.432,0.1227,0.7564000000000001,0.17350000000000002,0.002,-0.007,-0.005
1670264234.599997,-9.338000000000001,-0.808,4.425,0.1227,0.7572,0.1751,0.005,-0.008,-0.007
1670264234.639997,-9.324,-0.766,4.501,0.1218,0.758,0.1738,0.01,-0.014,-0.003
1670264234.679996,-9.338000000000001,-0.776,4.493,0.12350000000000001,0.7565000000000001,0.1713,0.009000000000000001,-0.015,-0.009000000000000001
1670264234.719996,-9.367,-0.765,4.407,0.1227,0.7563000000000001,0.1759,0.025,-0.02,-0.018000000000000002
1670264234.759996,-9.333,-0.779,4.3790000000000004,0.1208,0.7553000000000001,0.17320000000000002,0.015,-0.016,-0.008
1670264234.799996,-9.361,-0.797,4.364,0.12100000000000001,0.7543000000000001,0.1723,0.011,-0.013000000000000001,-0.003
1670264234.839996,-9.329,-0.789,4.373,0.1228,0.756,0.17550000000000002,0.014,-0.014,-0.005
1670264234.879996,-9.356,-0.797,4.4,0.12050000000000001,0.7569,0.1744,0.011,-0.018000000000000002,-0.016
1670264234.919996,-9.254,-0.78,4.382,0.1213,0.7548,0.17300000000000001,0.014,-0.022,-0.01
1670264234.959996,-9.378,-0.72,4.472,0.1198,0.7557,0.1756,0.038,-0.014,-0.008
1670264234.999996,-9.371,-0.794,4.472,0.1217,0.7556,0.17500000000000002,0.028,-0.002,-0.027
1670264235.039996,-9.249,-0.836,4.425,0.1226,0.7581,0.1743,0.005,-0.017,-0.003
1670264235.079996,-9.339,-0.789,4.446,0.1226,0.7567,0.1739,0.007,-0.014,0.005
1670264235.119996,-9.411,-0.721,4.384,0.11670000000000001,0.755,0.17700000000000002,0.026000000000000002,0.007,-0.008
1670264235.159996,-9.352,-0.802,4.507,0.12140000000000001,0.7548,0.1746,0.026000000000000002,-0.001,-0.007
1670264235.199996,-9.333,-0.79,4.4190000000000005,0.11660000000000001,0.7563000000000001,0.17600000000000002,0.007,-0.017,-0.002
1670264235.239996,-9.265,-0.791,4.452,0.1208,0.7556,0.1752,0.016,-0.018000000000000002,-0.013000000000000001
1670264235.279996,-9.302,-0.756,4.343,0.12440000000000001,0.7571,0.17370000000000002,0.019,-0.016,-0.007
1670264235.319996,-9.373,-0.8180000000000001,4.43,0.1226,0.7552,0.17300000000000001,0.014,0.0,-0.006
1670264235.359996,-9.315,-0.759,4.481,0.1227,0.7546,0.17200000000000001,0.012,-0.007,-0.002
1670264235.399996,-9.352,-0.785,4.391,0.1237,0.7584000000000001,0.1752,0.013000000000000001,-0.013000000000000001,0.011
1670264235.439996,-9.346,-0.717,4.431,0.11850000000000001,0.7563000000000001,0.1779,0.03,-0.013000000000000001,-0.005
1670264235.479996,-9.358,-0.775,4.373,0.12090000000000001,0.756,0.1709,0.033,-0.018000000000000002,-0.026000000000000002
1670264235.519996,-9.366,-0.8260000000000001,4.448,0.12300000000000001,0.7577,0.1792,0.005,-0.025,-0.01
1670264235.559996,-9.342,-0.74,4.463,0.1188,0.7531,0.14780000000000001,-0.003,-0.02,-0.007
1670264235.5999959,-9.396,-0.784,4.415,0.11960000000000001,0.7591,0.17600000000000002,0.02,-0.019,-0.018000000000000002
1670264235.639996,-9.312,-0.854,4.455,0.11850000000000001,0.7522000000000001,0.1827,-0.015,-0.019,0.02
1670264235.679996,-9.463000000000001,-0.717,4.543,0.12190000000000001,0.7555000000000001,0.17200000000000001,0.011,-0.001,-0.024
1670264235.719995,-9.375,-1.054,4.549,0.1242,0.7562,0.1729,-0.101,0.07100000000000001,-0.019
1670264235.759995,-9.362,-0.78,4.364,0.1236,0.7575000000000001,0.1696,-0.217,0.069,0.022
1670264235.799995,-9.299,-0.806,4.2780000000000005,0.1264,0.7611,0.16740000000000002,-0.20400000000000001,0.044,0.015
1670264235.839995,-9.341000000000001,-0.754,4.323,0.1283,0.762,0.16740000000000002,-0.11,-0.003,-0.009000000000000001
1670264235.879995,-9.449,-0.937,4.284,0.1265,0.7602,0.1661,-0.085,-0.02,0.002
1670264235.919995,-9.351,-0.84,4.32,0.12340000000000001,0.759,0.16540000000000002,-0.058,-0.015,-0.006
1670264235.959995,-9.331,-0.8210000000000001,4.253,0.124,0.7618,0.1663,-0.006,-0.051000000000000004,-0.032
1670264235.999995,-9.302,-0.931,4.3020000000000005,0.12380000000000001,0.7599,0.1626,0.007,-0.019,-0.02
1670264236.039995,-9.367,-1.006,4.261,0.1245,0.7614000000000001,0.1643,-0.02,-0.005,0.0
1670264236.079995,-9.375,-0.9580000000000001,4.382,0.125,0.7629,0.1658,0.032,-0.059000000000000004,-0.03
1670264236.119995,-9.058,-0.648,4.329,0.12340000000000001,0.7636000000000001,0.1647,0.185,-0.128,-0.053
1670264236.159995,-9.476,-0.994,4.357,0.12380000000000001,0.7604000000000001,0.1668,0.181,-0.058,-0.022
1670264236.199995,-9.217,-0.899,4.486,0.1207,0.7581,0.1721,0.18,-0.035,-0.007
1670264236.239995,-9.365,-0.93,4.41,0.1207,0.7594000000000001,0.1706,0.133,-0.033,0.0
1670264236.279995,-9.284,-0.873,4.43,0.12300000000000001,0.7597,0.1718,0.089,-0.021,-0.001
1670264236.319995,-9.39,-0.8270000000000001,4.542,0.1211,0.7584000000000001,0.1733,0.074,-0.01,0.017
1670264236.359995,-9.32,-0.887,4.455,0.1227,0.7569,0.1716,0.062,-0.002,-0.006
1670264236.3999949,-9.298,-0.927,4.422,0.1241,0.7585000000000001,0.17170000000000002,0.035,-0.004,0.0
1670264236.439995,-9.341000000000001,-0.782,4.496,0.11750000000000001,0.7592,0.1759,0.011,-0.003,0.012
1670264236.479995,-9.39,-0.778,4.463,0.1217,0.756,0.1718,0.042,0.01,-0.002
1670264236.519995,-9.345,-0.775,4.4750000000000005,0.1211,0.76,0.1746,0.05,0.014,-0.009000000000000001
1670264236.559995,-9.315,-0.874,4.415,0.12240000000000001,0.7562,0.17220000000000002,0.014,-0.009000000000000001,0.0
1670264236.599995,-9.299,-0.8150000000000001,4.339,0.1221,0.7577,0.1715,0.004,-0.025,-0.004
1670264236.6399949,-9.311,-0.709,4.4350000000000005,0.1247,0.7553000000000001,0.1752,0.03,-0.025,-0.012
1670264236.679995,-9.36,-0.796,4.416,0.1216,0.7557,0.1721,0.03,-0.007,-0.012
1670264236.719995,-9.368,-0.811,4.362,0.1213,0.7564000000000001,0.17200000000000001,0.013000000000000001,-0.008,-0.002
1670264236.759995,-9.290000000000001,-0.835,4.374,0.12430000000000001,0.7574000000000001,0.1736,0.006,-0.018000000000000002,0.001
1670264236.799995,-9.364,-0.733,4.373,0.12100000000000001,0.7539,0.17070000000000002,0.018000000000000002,-0.026000000000000002,-0.005
1670264236.839994,-9.354000000000001,-0.771,4.4110000000000005,0.12340000000000001,0.7541,0.17270000000000002,0.02,-0.021,-0.014
1670264236.879994,-9.352,-0.8270000000000001,4.4270000000000005,0.1179,0.7558,0.1781,0.007,-0.019,-0.008
1670264236.919994,-9.33,-0.792,4.478,0.1221,0.7567,0.1699,0.001,-0.025,-0.016
1670264236.959994,-9.384,-0.773,4.442,0.12440000000000001,0.7557,0.1719,0.018000000000000002,-0.013000000000000001,-0.016
1670264236.999994,-9.352,-0.8170000000000001,4.422,0.1232,0.7597,0.17350000000000002,0.012,-0.009000000000000001,-0.003
1670264237.039994,-9.311,-0.809,4.44,0.12050000000000001,0.759,0.1696,0.016,-0.005,0.0
1670264237.079994,-9.369,-0.768,4.437,0.12480000000000001,0.7564000000000001,0.17300000000000001,0.026000000000000002,-0.009000000000000001,-0.005
1670264237.119994,-9.365,-0.772,4.398,0.11470000000000001,0.7549,0.17980000000000002,0.03,-0.007,0.0
1670264237.159994,-9.327,-0.772,4.472,0.12250000000000001,0.7569,0.1706,0.018000000000000002,-0.024,-0.01
1670264237.1999938,-9.327,-0.79,4.422,0.1218,0.7548,0.17270000000000002,0.025,-0.015,-0.007
1670264237.239994,-9.369,-0.772,4.4,0.1232,0.7573000000000001,0.1716,0.012,-0.018000000000000002,-0.008
1670264237.279994,-9.317,-0.793,4.409,0.1221,0.7543000000000001,0.17250000000000001,0.008,-0.01,-0.005
1670264237.319994,-9.343,-0.781,4.486,0.12380000000000001,0.756,0.1708,0.017,-0.015,-0.008
1670264237.359994,-9.354000000000001,-0.772,4.384,0.12010000000000001,0.7549,0.17830000000000001,0.017,-0.012,-0.004
1670264237.399994,-9.366,-0.793,4.325,0.12100000000000001,0.7551,0.1796,0.019,-0.016,-0.007
1670264237.4399939,-9.336,-0.806,4.438,0.11900000000000001,0.7544000000000001,0.1638,0.014,-0.016,-0.008
1670264237.479994,-9.359,-0.772,4.353,0.1212,0.757,0.17070000000000002,0.019,-0.016,-0.007
1670264237.519994,-9.335,-0.795,4.4270000000000005,0.12300000000000001,0.7563000000000001,0.1724,0.025,-0.016,-0.015
1670264237.559994,-9.32,-0.781,4.397,0.12390000000000001,0.7575000000000001,0.1728,0.012,-0.011,-0.003
1670264237.599994,-9.370000000000001,-0.776,4.416,0.12100000000000001,0.7545000000000001,0.1721,0.016,-0.014,-0.003
1670264237.639994,-9.308,-0.801,4.388,0.1258,0.7594000000000001,0.1748,0.013000000000000001,-0.005,-0.005
1670264237.6799939,-9.368,-0.767,4.416,0.12140000000000001,0.756,0.17930000000000001,0.01,-0.006,0.0
1670264237.719994,-9.393,-0.75,4.414,0.1262,0.7555000000000001,0.1718,0.029,-0.002,0.004
1670264237.759994,-9.344,-0.874,4.356,0.1253,0.758,0.1734,0.036000000000000004,0.003,-0.02
1670264237.799994,-9.338000000000001,-0.767,4.329,0.1208,0.7539,0.1709,0.002,-0.01,0.013000000000000001
1670264237.839994,-9.373,-0.739,4.39,0.12390000000000001,0.7533000000000001,0.17300000000000001,0.012,-0.003,0.004
1670264237.879993,-9.39,-0.797,4.418,0.1232,0.7599,0.17350000000000002,0.012,0.0,-0.001
1670264237.919993,-9.357,-0.743,4.425,0.11800000000000001,0.7549,0.1716,0.009000000000000001,-0.01,-0.001
1670264237.959993,-9.33,-0.723,4.418,0.12480000000000001,0.7548,0.1721,0.04,-0.009000000000000001,-0.029
1670264237.9999928,-9.387,-0.852,4.369,0.1232,0.7538,0.1723,0.008,-0.013000000000000001,-0.003
1670264238.039993,-9.427,-0.751,4.377,0.1218,0.7537,0.17120000000000002,0.0,-0.016,0.011
1670264238.079993,-9.370000000000001,-0.724,4.429,0.1232,0.7545000000000001,0.17200000000000001,0.037,0.0,-0.024
1670264238.119993,-9.354000000000001,-0.865,4.283,0.1246,0.7553000000000001,0.1736,0.014,-0.017,0.003
1670264238.159993,-9.321,-0.747,4.398,0.1241,0.7535000000000001,0.1676,0.004,-0.02,0.012
1670264238.199993,-9.393,-0.687,4.405,0.1258,0.7573000000000001,0.17120000000000002,0.052000000000000005,-0.013000000000000001,-0.024
1670264238.2399929,-9.355,-0.8290000000000001,4.414,0.12250000000000001,0.7565000000000001,0.171,0.03,-0.012,-0.012
1670264238.279993,-9.345,-0.806,4.425,0.12350000000000001,0.7564000000000001,0.17,-0.003,-0.014,-0.002
1670264238.319993,-9.387,-0.744,4.391,0.12350000000000001,0.7546,0.1713,0.01,-0.011,-0.012
1670264238.359993,-9.425,-0.794,4.328,0.1233,0.7569,0.1731,0.007,-0.004,-0.007
1670264238.399993,-9.331,-0.8280000000000001,4.437,0.12240000000000001,0.7536,0.16970000000000002,-0.004,-0.011,0.012
1670264238.439993,-9.363,-0.736,4.316,0.1216,0.7555000000000001,0.1728,0.027,-0.008,-0.01
1670264238.4799929,-9.461,-0.6900000000000001,4.4030000000000005,0.12000000000000001,0.7573000000000001,0.1708,0.117,0.041,-0.035
1670264238.519993,-9.337,-0.742,4.382,0.1255,0.7563000000000001,0.1716,0.151,0.059000000000000004,-0.009000000000000001
1670264238.559993,-9.399000000000001,-0.73,4.4110000000000005,0.1269,0.7555000000000001,0.17170000000000002,0.246,0.122,0.015
1670264238.599993,-9.333,-0.787,4.245,0.1253,0.7549,0.1701,0.139,0.034,0.007
1670264238.639993,-9.309000000000001,-0.732,4.205,0.1275,0.7547,0.1698,0.023,-0.038,0.006
1670264238.679993,-9.435,-0.677,4.293,0.1255,0.7542,0.17350000000000002,-0.021,-0.03,-0.005
1670264238.7199929,-9.454,-0.577,4.371,0.1264,0.7525000000000001,0.1699,0.003,-0.029,-0.005
1670264238.759993,-9.4,-0.685,4.333,0.1253,0.7524000000000001,0.1743,-0.028,-0.026000000000000002,-0.006
1670264238.799993,-9.419,-0.6950000000000001,4.338,0.1279,0.7529,0.17320000000000002,-0.042,-0.056,-0.02
1670264238.839993,-9.281,-0.8260000000000001,4.211,0.12350000000000001,0.7545000000000001,0.1686,-0.14,-0.14,-0.041
1670264238.879993,-9.369,-0.645,4.328,0.125,0.7549,0.1715,-0.14100000000000001,-0.126,-0.025
1670264238.919992,-9.452,-0.776,4.3950000000000005,0.1236,0.7547,0.171,-0.007,-0.038,-0.024
1670264238.959992,-9.314,-0.656,4.501,0.12290000000000001,0.7575000000000001,0.1728,-0.012,-0.024,-0.01
1670264238.999992,-9.345,-0.902,4.378,0.1268,0.757,0.17270000000000002,0.0,-0.018000000000000002,0.005
1670264239.0399919,-9.374,-0.681,4.476,0.1245,0.7577,0.1729,-0.004,-0.009000000000000001,-0.012
1670264239.079992,-9.305,-0.8230000000000001,4.324,0.12140000000000001,0.7557,0.1709,0.019,-0.015,-0.008
1670264239.119992,-9.351,-0.762,4.506,0.1164,0.755,0.17170000000000002,0.013000000000000001,-0.006,0.006
1670264239.159992,-9.443,-0.76,4.384,0.1227,0.7582,0.1772,0.01,0.01,-0.013000000000000001
1670264239.199992,-9.349,-0.799,4.396,0.1198,0.7527,0.2036,0.009000000000000001,-0.009000000000000001,-0.007
1670264239.239992,-9.329,-0.791,4.39,0.12610000000000002,0.7594000000000001,0.17070000000000002,-0.007,-0.012,0.003
1670264239.2799919,-9.375,-0.736,4.445,0.12440000000000001,0.7577,0.18030000000000002,0.021,-0.001,-0.005
1670264239.319992,-9.339,-0.864,4.381,0.1257,0.757,0.1731,0.032,-0.008,-0.012
1670264239.359992,-9.314,-0.807,4.336,0.1218,0.7553000000000001,0.17200000000000001,0.017,-0.023,-0.009000000000000001
1670264239.399992,-9.339,-0.751,4.436,0.12430000000000001,0.7567,0.1744,0.025,-0.02,-0.018000000000000002
1670264239.439992,-9.47,-0.781,4.354,0.1233,0.7562,0.17550000000000002,0.029,-0.022,-0.014
1670264239.479992,-9.341000000000001,-0.846,4.37,0.1232,0.7552,0.1698,0.025,-0.006,-0.013000000000000001
1670264239.5199919,-9.384,-0.779,4.354,0.1246,0.7556,0.1724,0.019,-0.001,-0.006
1670264239.559992,-9.367,-0.767,4.345,0.1268,0.7582,0.17450000000000002,0.017,-0.011,0.005
1670264239.599992,-9.324,-0.767,4.372,0.1233,0.7573000000000001,0.1726,0.028,-0.012,-0.004
1670264239.639992,-9.364,-0.806,4.384,0.12340000000000001,0.7585000000000001,0.1709,0.041,-0.015,-0.018000000000000002
1670264239.679992,-9.332,-0.855,4.412,0.12840000000000001,0.758,0.1768,0.003,-0.023,-0.013000000000000001
1670264239.719992,-9.38,-0.775,4.445,0.1228,0.7558,0.1729,-0.006,-0.016,-0.008
1670264239.759992,-9.39,-0.772,4.39,0.1246,0.756,0.1723,0.006,-0.019,-0.017
1670264239.799992,-9.370000000000001,-0.805,4.414,0.1255,0.7577,0.1736,0.013000000000000001,-0.014,-0.001
1670264239.839992,-9.301,-0.778,4.452,0.12440000000000001,0.7541,0.1713,0.013000000000000001,-0.012,0.0
1670264239.879992,-9.342,-0.772,4.355,0.1263,0.7585000000000001,0.1715,0.024,-0.011,-0.011
1670264239.919992,-9.374,-0.806,4.422,0.11810000000000001,0.7567,0.1716,0.027,-0.023,-0.013000000000000001
1670264239.959991,-9.370000000000001,-0.778,4.364,0.12480000000000001,0.7563000000000001,0.1733,0.009000000000000001,-0.015,-0.001
1670264239.999991,-9.375,-0.784,4.333,0.1279,0.7555000000000001,0.17320000000000002,0.01,-0.016,-0.011
1670264240.039991,-9.382,-0.801,4.381,0.12430000000000001,0.7602,0.171,0.011,-0.018000000000000002,-0.02
1670264240.0799909,-9.39,-0.787,4.367,0.1254,0.7562,0.17370000000000002,0.01,-0.013000000000000001,-0.008
1670264240.119991,-9.393,-0.769,4.369,0.1259,0.7561,0.1716,0.02,-0.009000000000000001,-0.005
1670264240.159991,-9.343,-0.796,4.462,0.1277,0.7607,0.171,0.017,-0.012,-0.005
1670264240.199991,-9.357,-0.8180000000000001,4.337,0.1236,0.755,0.1714,0.012,-0.017,-0.003
1670264240.239991,-9.329,-0.776,4.4270000000000005,0.1275,0.7601,0.1716,0.015,-0.011,-0.003
1670264240.279991,-9.343,-0.784,4.37,0.126,0.7559,0.17070000000000002,0.026000000000000002,-0.014,-0.01
1670264240.3199909,-9.333,-0.793,4.378,0.1257,0.7571,0.1723,0.022,-0.02,-0.01
1670264240.359991,-9.308,-0.8140000000000001,4.39,0.12440000000000001,0.7558,0.1731,0.022,-0.016,-0.006
1670264240.399991,-9.342,-0.8270000000000001,4.433,0.1222,0.7568,0.1729,0.005,-0.016,-0.015
1670264240.439991,-9.381,-0.751,4.393,0.12300000000000001,0.7559,0.1706,0.005,-0.005,0.001
1670264240.479991,-9.366,-0.714,4.417,0.12560000000000002,0.7577,0.1749,0.047,-0.019,-0.001
1670264240.519991,-9.317,-0.856,4.402,0.12490000000000001,0.7567,0.1726,0.02,-0.009000000000000001,-0.024
1670264240.559991,-9.366,-0.8130000000000001,4.3100000000000005,0.1236,0.7601,0.1705,-0.005,-0.016,0.002
1670264240.599991,-9.311,-0.8250000000000001,4.39,0.12710000000000002,0.7563000000000001,0.1754,0.007,-0.02,-0.002
1670264240.639991,-9.385,-0.7010000000000001,4.408,0.1213,0.7569,0.17370000000000002,0.033,-0.005,-0.019
1670264240.679991,-9.406,-0.849,4.282,0.1252,0.7567,0.1729,0.024,-0.011,-0.007
1670264240.719991,-9.361,-0.812,4.369,0.1272,0.7594000000000001,0.1723,0.013000000000000001,-0.009000000000000001,0.0
1670264240.759991,-9.288,-0.808,4.522,0.124,0.7569,0.1723,0.013000000000000001,-0.022,-0.014
1670264240.799991,-9.321,-0.744,4.44,0.1268,0.758,0.1699,0.016,-0.016,-0.012
1670264240.839991,-9.382,-0.852,4.367,0.12390000000000001,0.7575000000000001,0.1746,0.018000000000000002,-0.002,-0.002
1670264240.879991,-9.308,-0.799,4.3790000000000004,0.12050000000000001,0.7563000000000001,0.1773,0.001,-0.009000000000000001,0.0
1670264240.919991,-9.364,-0.796,4.385,0.1247,0.7551,0.1715,0.015,-0.013000000000000001,-0.001
1670264240.959991,-9.372,-0.715,4.366,0.12350000000000001,0.7569,0.1779,0.042,-0.018000000000000002,-0.021
1670264240.99999,-9.367,-0.8190000000000001,4.3,0.125,0.7545000000000001,0.1829,0.024,-0.018000000000000002,-0.01
1670264241.03999,-9.314,-0.847,4.391,0.126,0.7563000000000001,0.17500000000000002,0.006,-0.024,-0.007
1670264241.07999,-9.314,-0.772,4.386,0.1228,0.7556,0.1708,0.011,-0.027,-0.022
1670264241.1199899,-9.409,-0.882,4.293,0.1227,0.7569,0.1555,0.003,-0.023,-0.014
1670264241.15999,-9.373,-0.78,4.431,0.1202,0.7552,0.1743,-0.01,-0.004,0.013000000000000001
1670264241.19999,-9.39,-0.995,4.511,0.1253,0.7575000000000001,0.1699,-0.081,0.061,0.0
1670264241.23999,-9.372,-0.895,4.331,0.1279,0.7611,0.1696,-0.21,0.137,0.015
1670264241.27999,-9.413,-0.8150000000000001,4.258,0.1274,0.7617,0.1643,-0.163,0.047,0.015
1670264241.31999,-9.305,-0.763,4.151,0.12380000000000001,0.7612,0.16490000000000002,-0.11900000000000001,0.025,0.007
1670264241.35999,-9.457,-0.907,4.269,0.12890000000000001,0.7611,0.1661,-0.057,0.003,-0.021
1670264241.39999,-9.43,-0.914,4.214,0.1259,0.7618,0.1643,-0.049,-0.022,-0.01
1670264241.43999,-9.381,-0.912,4.285,0.1287,0.7621,0.16240000000000002,-0.041,-0.021,-0.01
1670264241.47999,-9.332,-0.806,4.123,0.1306,0.7612,0.16240000000000002,-0.001,-0.02,-0.014
1670264241.51999,-9.532,-0.971,4.321,0.1272,0.7622,0.164,0.12,-0.097,-0.065
1670264241.55999,-9.349,-0.917,4.321,0.1255,0.7619,0.16820000000000002,0.221,-0.14200000000000002,-0.067
1670264241.59999,-9.399000000000001,-0.997,4.3020000000000005,0.1253,0.764,0.16970000000000002,0.113,-0.029,0.001
1670264241.63999,-9.323,-0.8270000000000001,4.44,0.126,0.7599,0.1685,0.167,-0.045,-0.017
1670264241.67999,-9.433,-1.0090000000000001,4.324,0.1257,0.7611,0.1715,0.114,-0.022,-0.005
1670264241.71999,-9.336,-0.8210000000000001,4.4030000000000005,0.1263,0.7585000000000001,0.1738,0.08700000000000001,-0.014,0.015
1670264241.75999,-9.347,-0.837,4.422,0.12490000000000001,0.7576,0.17070000000000002,0.045,-0.009000000000000001,-0.009000000000000001
1670264241.79999,-9.361,-0.866,4.37,0.1278,0.7597,0.1718,0.052000000000000005,-0.02,-0.011
1670264241.83999,-9.287,-0.866,4.363,0.1255,0.7574000000000001,0.17400000000000002,0.037,-0.014,0.005
1670264241.87999,-9.329,-0.774,4.429,0.1232,0.7607,0.1724,0.041,-0.004,0.001
1670264241.91999,-9.375,-0.797,4.442,0.11670000000000001,0.7525000000000001,0.18230000000000002,0.054,-0.004,-0.016
1670264241.95999,-9.296,-0.873,4.353,0.1273,0.758,0.17320000000000002,0.035,-0.002,-0.009000000000000001
1670264241.99999,-9.359,-0.8180000000000001,4.364,0.1228,0.7583000000000001,0.1705,0.001,-0.012,0.003
1670264242.039989,-9.407,-0.741,4.418,0.12610000000000002,0.7585000000000001,0.1716,0.024,-0.011,-0.015
1670264242.079989,-9.364,-0.807,4.455,0.12430000000000001,0.7552,0.1704,0.033,-0.002,-0.013000000000000001
1670264242.119989,-9.329,-0.85,4.367,0.1223,0.7581,0.1699,0.02,-0.02,-0.006
1670264242.1599889,-9.372,-0.79,4.3020000000000005,0.1259,0.7588,0.1733,0.022,-0.029,-0.016
1670264242.199989,-9.38,-0.787,4.401,0.12390000000000001,0.7571,0.1724,0.023,-0.014,-0.002
1670264242.239989,-9.422,-0.799,4.391,0.128,0.7597,0.1731,0.008,0.0,0.003
1670264242.279989,-9.405,-0.785,4.323,0.126,0.757,0.1734,0.012,0.009000000000000001,-0.007
1670264242.319989,-9.366,-0.8270000000000001,4.29,0.12200000000000001,0.7589,0.1718,0.008,0.004,0.004
1670264242.359989,-9.358,-0.736,4.332,0.1264,0.7583000000000001,0.1696,0.019,-0.012,0.0
1670264242.399989,-9.405,-0.756,4.303,0.1262,0.7545000000000001,0.17370000000000002,0.037,-0.016,-0.021
1670264242.439989,-9.402000000000001,-0.789,4.4190000000000005,0.11750000000000001,0.7543000000000001,0.1721,0.025,-0.022,-0.015
1670264242.479989,-9.361,-0.8320000000000001,4.4190000000000005,0.1274,0.7554000000000001,0.1709,0.009000000000000001,-0.022,-0.011
1670264242.519989,-9.343,-0.776,4.414,0.1264,0.7574000000000001,0.1718,0.008,-0.015,-0.017
1670264242.559989,-9.368,-0.789,4.36,0.12510000000000002,0.755,0.1721,0.008,-0.007,-0.008
1670264242.599989,-9.378,-0.847,4.355,0.12760000000000002,0.7582,0.16970000000000002,0.007,-0.008,0.005
1670264242.639989,-9.413,-0.771,4.352,0.1216,0.7559,0.1758,0.023,-0.007,0.0
1670264242.679989,-9.339,-0.779,4.361,0.1264,0.7549,0.1709,0.036000000000000004,-0.006,-0.005
1670264242.719989,-9.388,-0.8140000000000001,4.346,0.1274,0.7553000000000001,0.17400000000000002,0.021,-0.009000000000000001,-0.004
1670264242.759989,-9.411,-0.793,4.271,0.1283,0.7586,0.1731,0.019,-0.017,-0.005
1670264242.799989,-9.358,-0.801,4.321,0.1268,0.7583000000000001,0.1705,0.016,-0.017,-0.012
1670264242.839989,-9.399000000000001,-0.793,4.331,0.1269,0.7572,0.1738,0.015,-0.013000000000000001,-0.008
1670264242.879989,-9.408,-0.779,4.388,0.12760000000000002,0.7555000000000001,0.1602,0.023,-0.005,-0.006
1670264242.919989,-9.388,-0.782,4.437,0.12490000000000001,0.7585000000000001,0.1928,0.021,-0.007,0.004
1670264242.959989,-9.403,-0.806,4.3420000000000005,0.12510000000000002,0.7576,0.1559,0.017,-0.01,-0.011
1670264242.999989,-9.361,-0.769,4.321,0.12610000000000002,0.7581,0.171,0.024,-0.017,-0.009000000000000001
1670264243.039989,-9.385,-0.755,4.345,0.1275,0.7543000000000001,0.17200000000000001,0.02,-0.012,0.001
1670264243.079988,-9.408,-0.799,4.391,0.127,0.7581,0.1699,0.02,-0.016,-0.016
1670264243.119988,-9.373,-0.8320000000000001,4.346,0.12990000000000002,0.7577,0.17350000000000002,0.007,-0.014,-0.001
1670264243.159988,-9.373,-0.742,4.335,0.12140000000000001,0.7544000000000001,0.1757,-0.003,-0.009000000000000001,0.013000000000000001
1670264243.199988,-9.348,-0.737,4.285,0.1264,0.7571,0.1715,0.016,-0.015,-0.016
1670264243.239988,-9.418000000000001,-0.764,4.414,0.12660000000000002,0.7573000000000001,0.1733,0.025,-0.011,-0.002
1670264243.279988,-9.406,-0.757,4.303,0.1264,0.7585000000000001,0.1726,0.033,-0.001,-0.001
1670264243.319988,-9.336,-0.864,4.354,0.12390000000000001,0.7568,0.1706,0.033,0.007,-0.019
1670264243.359988,-9.365,-0.803,4.3420000000000005,0.1303,0.7564000000000001,0.1715,0.0,-0.002,0.013000000000000001
1670264243.399988,-9.438,-0.6930000000000001,4.343,0.12760000000000002,0.7583000000000001,0.17120000000000002,0.021,-0.004,0.0
1670264243.439988,-9.439,-0.8260000000000001,4.336,0.12610000000000002,0.7549,0.1701,0.034,0.002,-0.022
1670264243.479988,-9.432,-0.784,4.277,0.1268,0.7564000000000001,0.1723,0.021,-0.011,0.005
1670264243.519988,-9.323,-0.785,4.352,0.1264,0.7557,0.16970000000000002,0.021,-0.029,-0.021
1670264243.559988,-9.413,-0.745,4.2780000000000005,0.1267,0.7567,0.17270000000000002,0.019,-0.025,-0.012
1670264243.599988,-9.47,-0.781,4.384,0.1291,0.7575000000000001,0.17120000000000002,0.006,-0.005,0.003
1670264243.639988,-9.33,-0.74,4.319,0.12660000000000002,0.7563000000000001,0.1723,0.02,0.0,-0.013000000000000001
1670264243.679988,-9.382,-0.8150000000000001,4.232,0.1263,0.754,0.1718,0.01,-0.02,0.001
1670264243.719988,-9.382,-0.74,4.266,0.1267,0.759,0.17200000000000001,0.011,-0.027,0.003
1670264243.759988,-9.394,-0.74,4.33,0.1268,0.7555000000000001,0.17420000000000002,0.043000000000000003,-0.031,-0.03
1670264243.799988,-9.417,-0.8210000000000001,4.285,0.1264,0.757,0.17250000000000001,0.018000000000000002,-0.043000000000000003,-0.02
1670264243.839988,-9.407,-0.808,4.301,0.12710000000000002,0.7561,0.17350000000000002,0.0,-0.046,-0.011
1670264243.879988,-9.372,-0.778,4.365,0.1253,0.7569,0.1713,0.008,-0.035,-0.028
1670264243.919988,-9.392,-0.799,4.381,0.11900000000000001,0.7546,0.17070000000000002,-0.003,-0.016,0.001
1670264243.959988,-9.354000000000001,-0.8200000000000001,4.319,0.1278,0.7568,0.1741,0.022,-0.021,-0.014
1670264243.999988,-9.387,-0.706,4.382,0.1274,0.7569,0.1721,0.045,-0.027,-0.032
1670264244.039988,-9.455,-0.802,4.378,0.12510000000000002,0.7536,0.1713,0.099,0.042,0.0
1670264244.079988,-9.416,-0.65,4.516,0.1265,0.7563000000000001,0.17400000000000002,0.189,0.121,0.01
1670264244.119987,-9.412,-0.666,4.3020000000000005,0.12490000000000001,0.7547,0.17400000000000002,0.215,0.10200000000000001,0.002
1670264244.159987,-9.435,-0.754,4.283,0.1282,0.7531,0.17550000000000002,0.129,0.046,0.0
1670264244.199987,-9.409,-0.675,4.251,0.127,0.7525000000000001,0.1762,0.04,0.002,0.004
1670264244.239987,-9.434000000000001,-0.662,4.202,0.1272,0.7536,0.1736,0.008,-0.009000000000000001,0.0
1670264244.279987,-9.449,-0.687,4.179,0.1277,0.7522000000000001,0.17370000000000002,0.0,-0.023,-0.004
1670264244.319987,-9.442,-0.638,4.271,0.1257,0.7525000000000001,0.17470000000000002,0.008,-0.021,-0.012
1670264244.359987,-9.411,-0.657,4.275,0.1269,0.7492000000000001,0.1708,0.01,-0.036000000000000004,-0.019
1670264244.399987,-9.521,-0.656,4.232,0.1149,0.7496,0.1744,0.023,-0.027,-0.012
1670264244.439987,-9.405,-0.678,4.183,0.12390000000000001,0.7527,0.1738,-0.022,-0.063,-0.025
1670264244.479987,-9.314,-0.8220000000000001,4.1610000000000005,0.1263,0.753,0.1771,-0.183,-0.183,-0.042
1670264244.519987,-9.527000000000001,-0.708,4.34,0.1268,0.755,0.1728,-0.13,-0.088,-0.049
1670264244.559987,-9.412,-0.599,4.46,0.125,0.7543000000000001,0.17420000000000002,-0.076,-0.052000000000000005,-0.033
1670264244.599987,-9.370000000000001,-0.799,4.375,0.12510000000000002,0.7567,0.1715,-0.014,-0.041,-0.015
1670264244.639987,-9.428,-0.8280000000000001,4.348,0.12380000000000001,0.7542,0.1759,-0.032,-0.016,-0.003
1670264244.679987,-9.385,-0.748,4.436,0.1217,0.7574000000000001,0.17500000000000002,-0.018000000000000002,-0.004,0.011
1670264244.719987,-9.32,-0.707,4.4750000000000005,0.12350000000000001,0.7581,0.1751,0.025,-0.011,-0.017
1670264244.759987,-9.367,-0.8300000000000001,4.346,0.1242,0.7583000000000001,0.1655,0.017,-0.003,-0.015
1670264244.799987,-9.341000000000001,-0.8220000000000001,4.405,0.12240000000000001,0.7569,0.1555,-0.011,-0.009000000000000001,0.011
1670264244.839987,-9.391,-0.762,4.34,0.1228,0.7577,0.1855,0.006,-0.011,0.0
1670264244.879987,-9.35,-0.842,4.385,0.1246,0.7537,0.1739,0.034,-0.005,-0.012
1670264244.919987,-9.349,-0.8300000000000001,4.3260000000000005,0.1245,0.755,0.1719,0.015,-0.014,0.0
1670264244.959987,-9.279,-0.804,4.378,0.1247,0.7591,0.1729,0.018000000000000002,-0.023,-0.012
1670264244.999987,-9.352,-0.784,4.309,0.11860000000000001,0.7582,0.1757,0.026000000000000002,-0.017,-0.01
1670264245.0399868,-9.382,-0.811,4.37,0.1247,0.7554000000000001,0.1698,0.016,-0.003,0.0
1670264245.079987,-9.355,-0.797,4.317,0.1254,0.7594000000000001,0.1743,0.021,-0.004,-0.005
1670264245.119987,-9.348,-0.841,4.322,0.1283,0.7536,0.17200000000000001,0.007,-0.01,-0.003
1670264245.159986,-9.377,-0.769,4.339,0.1258,0.7569,0.1731,0.008,-0.018000000000000002,0.0
1670264245.199986,-9.431000000000001,-0.758,4.3260000000000005,0.1253,0.7552,0.17300000000000001,0.031,-0.015,-0.021
1670264245.239986,-9.346,-0.84,4.385,0.12430000000000001,0.7571,0.1733,0.024,-0.018000000000000002,-0.026000000000000002
1670264245.279986,-9.36,-0.8310000000000001,4.396,0.1263,0.7556,0.17370000000000002,-0.006,-0.03,-0.006
1670264245.319986,-9.399000000000001,-0.781,4.375,0.12560000000000002,0.7549,0.1708,0.003,-0.025,-0.015
1670264245.359986,-9.36,-0.8190000000000001,4.363,0.12490000000000001,0.7577,0.17400000000000002,0.014,-0.014,-0.016
1670264245.399986,-9.366,-0.849,4.367,0.126,0.7571,0.1728,0.005,-0.012,-0.002
1670264245.439986,-9.339,-0.799,4.388,0.1254,0.7583000000000001,0.17550000000000002,0.023,-0.012,-0.001
1670264245.479986,-9.349,-0.787,4.348,0.1236,0.7547,0.17170000000000002,0.035,-0.011,-0.01
1670264245.519986,-9.35,-0.8230000000000001,4.316,0.12390000000000001,0.7553000000000001,0.1756,0.027,-0.013000000000000001,-0.012
1670264245.559986,-9.379,-0.805,4.409,0.1269,0.7572,0.17270000000000002,0.014,-0.018000000000000002,-0.006
1670264245.599986,-9.371,-0.793,4.405,0.1197,0.7555000000000001,0.1704,0.007,-0.017,-0.008
1670264245.639986,-9.351,-0.794,4.398,0.125,0.7596,0.1718,0.005,-0.022,-0.011
1670264245.679986,-9.336,-0.784,4.382,0.12300000000000001,0.7563000000000001,0.1748,0.019,-0.022,-0.014
1670264245.719986,-9.373,-0.8170000000000001,4.388,0.12390000000000001,0.755,0.1721,0.022,-0.018000000000000002,-0.008
1670264245.759986,-9.333,-0.84,4.348,0.12430000000000001,0.7597,0.1746,0.017,-0.023,-0.002
1670264245.799986,-9.334,-0.793,4.4670000000000005,0.12430000000000001,0.7582,0.17270000000000002,0.024,-0.012,-0.012
1670264245.8399858,-9.422,-0.804,4.389,0.12610000000000002,0.758,0.1705,0.02,-0.012,-0.005
1670264245.879986,-9.399000000000001,-0.805,4.363,0.12610000000000002,0.7579,0.17250000000000001,0.019,-0.011,-0.004
1670264245.919986,-9.34,-0.8230000000000001,4.367,0.12050000000000001,0.756,0.1723,0.015,-0.008,0.0
1670264245.959986,-9.366,-0.8130000000000001,4.424,0.1247,0.7582,0.17220000000000002,0.016,-0.005,-0.004
1670264245.999986,-9.335,-0.797,4.416,0.1257,0.7572,0.1752,0.021,-0.018000000000000002,-0.009000000000000001
1670264246.039986,-9.358,-0.795,4.408,0.1254,0.7578,0.17070000000000002,0.018000000000000002,-0.01,-0.012
1670264246.0799859,-9.32,-0.808,4.34,0.126,0.7574000000000001,0.17170000000000002,0.016,-0.016,-0.008
1670264246.119986,-9.359,-0.772,4.4110000000000005,0.1268,0.7587,0.1748,0.031,-0.011,-0.001
1670264246.159986,-9.351,-0.791,4.346,0.1257,0.7553000000000001,0.1726,0.03,-0.007,-0.017
1670264246.199986,-9.385,-0.877,4.28,0.12660000000000002,0.7583000000000001,0.17450000000000002,0.0,-0.015,0.001
1670264246.239986,-9.384,-0.802,4.331,0.1269,0.7551,0.17350000000000002,-0.004,-0.021,0.005
1670264246.279985,-9.392,-0.727,4.424,0.1228,0.7574000000000001,0.17220000000000002,0.023,-0.013000000000000001,-0.022
1670264246.319985,-9.381,-0.8180000000000001,4.346,0.1265,0.758,0.17120000000000002,0.027,-0.014,-0.01
1670264246.359985,-9.366,-0.837,4.371,0.12610000000000002,0.7583000000000001,0.1738,0.016,-0.023,-0.002
1670264246.399985,-9.303,-0.811,4.313,0.1168,0.7551,0.1714,0.024,-0.016,-0.017
1670264246.439985,-9.366,-0.788,4.315,0.1253,0.7552,0.1754,0.025,-0.012,-0.003
1670264246.479985,-9.448,-0.8220000000000001,4.421,0.1264,0.7578,0.17320000000000002,0.014,0.004,0.001
1670264246.519985,-9.348,-0.79,4.34,0.12490000000000001,0.7558,0.1713,0.015,0.006,-0.007
1670264246.559985,-9.36,-0.843,4.279,0.12710000000000002,0.7605000000000001,0.1736,0.011,-0.005,0.01
1670264246.599985,-9.394,-0.772,4.363,0.12340000000000001,0.7602,0.1656,0.012,0.0,0.001
1670264246.6399848,-9.47,-1.087,4.381,0.1216,0.7564000000000001,0.1799,-0.082,0.06,-0.007
1670264246.679985,-9.474,-0.8260000000000001,4.34,0.1269,0.7596,0.1767,-0.198,0.113,0.019
1670264246.719985,-9.404,-0.785,4.252,0.13290000000000002,0.7615000000000001,0.1648,-0.178,0.074,0.009000000000000001
1670264246.759985,-9.387,-0.778,4.2700000000000005,0.1293,0.7624000000000001,0.16690000000000002,-0.08600000000000001,0.032,-0.013000000000000001
1670264246.799985,-9.44,-0.911,4.215,0.1313,0.7586,0.1652,-0.048,0.025,-0.009000000000000001
1670264246.839985,-9.43,-0.888,4.135,0.1296,0.7623000000000001,0.1643,-0.025,-0.019,-0.008
1670264246.8799849,-9.469,-0.932,4.2170000000000005,0.1318,0.7652,0.16490000000000002,-0.019,-0.021,-0.016
1670264246.919985,-9.461,-0.857,4.172,0.1295,0.7621,0.16690000000000002,-0.007,-0.025,-0.025
1670264246.959985,-9.347,-0.608,4.091,0.1296,0.7617,0.16,0.133,-0.139,-0.049
1670264246.999985,-9.485,-0.999,4.206,0.128,0.7621,0.16740000000000002,0.178,-0.113,-0.042
1670264247.039985,-9.382,-0.873,4.3870000000000005,0.1278,0.7622,0.16570000000000001,0.164,-0.04,-0.007
1670264247.079985,-9.41,-0.916,4.36,0.1246,0.761,0.1675,0.133,-0.033,-0.015
1670264247.1199849,-9.473,-0.92,4.308,0.1272,0.7593000000000001,0.1715,0.08600000000000001,-0.021,0.005
1670264247.159985,-9.456,-0.84,4.329,0.1268,0.7584000000000001,0.1715,0.057,-0.013000000000000001,0.004
1670264247.199985,-9.402000000000001,-0.842,4.409,0.1291,0.7604000000000001,0.1706,0.05,-0.012,-0.007
1670264247.239985,-9.373,-0.862,4.336,0.1287,0.7581,0.17320000000000002,0.032,-0.009000000000000001,0.0
1670264247.279985,-9.443,-0.807,4.293,0.12840000000000001,0.757,0.16870000000000002,0.035,-0.013000000000000001,-0.012
1670264247.319984,-9.403,-0.8140000000000001,4.3340000000000005,0.12840000000000001,0.7589,0.17270000000000002,0.032,-0.009000000000000001,-0.006
1670264247.359984,-9.39,-0.809,4.303,0.1279,0.7558,0.1705,0.025,-0.012,0.0
1670264247.399984,-9.413,-0.779,4.33,0.1252,0.7572,0.1708,0.028,-0.01,-0.002
1670264247.4399838,-9.436,-0.772,4.373,0.1279,0.7586,0.17270000000000002,0.037,-0.008,-0.01
1670264247.479984,-9.374,-0.883,4.266,0.1268,0.7554000000000001,0.1728,0.019,-0.01,-0.01
1670264247.519984,-9.499,-0.787,4.284,0.1252,0.7557,0.1688,0.006,0.0,0.01
1670264247.559984,-9.472,-0.744,4.324,0.1277,0.7567,0.1715,0.017,0.009000000000000001,0.011
1670264247.599984,-9.428,-0.8150000000000001,4.2860000000000005,0.1272,0.7571,0.1694,0.035,0.009000000000000001,-0.016
1670264247.639984,-9.346,-0.8210000000000001,4.339,0.1274,0.7564000000000001,0.1704,0.01,-0.016,-0.001
1670264247.6799839,-9.469,-0.799,4.313,0.1275,0.7556,0.17350000000000002,0.003,-0.011,0.004
1670264247.719984,-9.428,-0.735,4.293,0.1267,0.7563000000000001,0.1708,0.037,-0.008,-0.012
1670264247.759984,-9.395,-0.845,4.252,0.129,0.7595000000000001,0.171,0.03,-0.011,-0.01
1670264247.799984,-9.417,-0.8240000000000001,4.239,0.1272,0.7569,0.1718,0.005,-0.023,-0.01
1670264247.839984,-9.381,-0.845,4.357,0.1247,0.7553000000000001,0.1675,0.0,-0.017,0.002
1670264247.879984,-9.473,-0.762,4.306,0.127,0.7566,0.1704,0.011,0.002,-0.003
1670264247.9199839,-9.471,-0.8160000000000001,4.283,0.1283,0.7589,0.1716,0.007,0.003,-0.01
1670264247.959984,-9.369,-0.8180000000000001,4.266,0.12660000000000002,0.7578,0.171,0.001,-0.01,0.004
1670264247.999984,-9.389,-0.745,4.297,0.125,0.7562,0.1731,0.022,-0.013000000000000001,0.003
1670264248.039984,-9.455,-0.742,4.316,0.12660000000000002,0.7563000000000001,0.1729,0.051000000000000004,-0.013000000000000001,-0.023
1670264248.079984,-9.445,-0.809,4.197,0.1282,0.76,0.1688,0.023,-0.025,-0.018000000000000002
1670264248.119984,-9.403,-0.84,4.324,0.1282,0.7579,0.17,0.012,-0.031,-0.013000000000000001
1670264248.1599839,-9.358,-0.8140000000000001,4.312,0.12430000000000001,0.7584000000000001,0.1721,0.015,-0.022,-0.026000000000000002
1670264248.199984,-9.433,-0.802,4.288,0.1275,0.7564000000000001,0.1698,0.015,-0.023,-0.021
1670264248.239984,-9.411,-0.842,4.3100000000000005,0.1255,0.7553000000000001,0.16970000000000002,0.01,-0.022,-0.01
1670264248.279984,-9.43,-0.792,4.319,0.1265,0.7575000000000001,0.171,0.014,-0.028,-0.014
1670264248.319984,-9.39,-0.788,4.317,0.1277,0.7578,0.1689,0.035,-0.03,-0.019
1670264248.359983,-9.406,-0.806,4.311,0.1277,0.7588,0.1678,0.03,-0.02,-0.011
1670264248.399983,-9.396,-0.802,4.34,0.12190000000000001,0.7553000000000001,0.16840000000000002,0.017,-0.016,-0.01
1670264248.439983,-9.378,-0.809,4.319,0.1232,0.7575000000000001,0.151,0.011,-0.024,-0.011
1670264248.4799829,-9.395,-0.8290000000000001,4.352,0.12810000000000002,0.7581,0.1779,0.014,-0.02,-0.015
1670264248.519983,-9.424,-0.811,4.311,0.12250000000000001,0.7571,0.1879,0.014,-0.018000000000000002,-0.009000000000000001
1670264248.559983,-9.417,-0.8200000000000001,4.34,0.1272,0.7574000000000001,0.1703,0.016,-0.025,-0.014
1670264248.599983,-9.391,-0.8230000000000001,4.39,0.1236,0.7586,0.1736,0.011,-0.018000000000000002,-0.011
1670264248.639983,-9.352,-0.844,4.363,0.1269,0.7577,0.1665,0.023,-0.018000000000000002,-0.004
1670264248.679983,-9.4,-0.801,4.33,0.127,0.7578,0.1749,0.023,-0.018000000000000002,-0.014
1670264248.7199829,-9.402000000000001,-0.8280000000000001,4.305,0.1269,0.7585000000000001,0.17270000000000002,0.023,-0.015,-0.005
1670264248.759983,-9.421,-0.8170000000000001,4.34,0.12860000000000002,0.7582,0.1698,0.025,-0.015,-0.001
1670264248.799983,-9.382,-0.8,4.314,0.12860000000000002,0.7599,0.17470000000000002,0.013000000000000001,-0.018000000000000002,-0.001
1670264248.839983,-9.408,-0.867,4.258,0.1275,0.7563000000000001,0.1715,0.015,-0.019,-0.016
1670264248.879983,-9.412,-0.8,4.349,0.1252,0.7591,0.1709,0.022,-0.024,-0.014
1670264248.919983,-9.376,-0.776,4.3180000000000005,0.1275,0.7569,0.1758,0.025,-0.012,0.007
1670264248.9599829,-9.41,-0.851,4.3260000000000005,0.12660000000000002,0.7577,0.1714,0.022,0.001,-0.022
1670264248.999983,-9.351,-0.838,4.2700000000000005,0.127,0.7594000000000001,0.16970000000000002,0.001,-0.012,0.004
1670264249.039983,-9.349,-0.8260000000000001,4.335,0.1274,0.7572,0.1734,-0.002,-0.021,0.0
1670264249.079983,-9.422,-0.734,4.415,0.12490000000000001,0.7576,0.1718,0.028,-0.013000000000000001,-0.022
1670264249.119983,-9.421,-0.878,4.357,0.1288,0.7572,0.1724,0.02,-0.014,-0.01
1670264249.159983,-9.367,-0.809,4.392,0.1258,0.7561,0.1774,0.005,-0.02,-0.007
1670264249.199983,-9.361,-0.857,4.282,0.125,0.7587,0.1731,0.014,-0.027,-0.014
1670264249.239983,-9.391,-0.766,4.3420000000000005,0.12990000000000002,0.7567,0.17070000000000002,0.024,-0.018000000000000002,-0.005
1670264249.279983,-9.429,-0.842,4.369,0.126,0.7605000000000001,0.1729,0.016,0.002,-0.003
1670264249.319983,-9.39,-0.798,4.306,0.1255,0.7575000000000001,0.1699,0.008,0.0,-0.002
1670264249.359983,-9.384,-0.849,4.33,0.12860000000000002,0.7577,0.16970000000000002,0.002,-0.015,0.011
1670264249.399982,-9.402000000000001,-0.74,4.366,0.12560000000000002,0.7585000000000001,0.1703,0.007,-0.019,0.004
1670264249.439982,-9.462,-0.682,4.397,0.1268,0.7568,0.1678,0.153,0.07100000000000001,-0.024
1670264249.479982,-9.451,-0.782,4.393,0.1302,0.7575000000000001,0.1705,0.228,0.123,0.008
1670264249.5199819,-9.393,-0.788,4.157,0.1285,0.7561,0.1719,0.155,0.078,0.009000000000000001
1670264249.559982,-9.411,-0.811,4.176,0.1282,0.7503000000000001,0.1703,0.075,0.018000000000000002,-0.01
1670264249.599982,-9.437,-0.7000000000000001,4.229,0.1308,0.7542,0.17350000000000002,0.04,0.002,0.002
1670264249.639982,-9.449,-0.628,4.3100000000000005,0.1307,0.7499,0.1749,0.036000000000000004,-0.018000000000000002,-0.013000000000000001
1670264249.679982,-9.399000000000001,-0.723,4.187,0.1275,0.7509,0.17020000000000002,0.029,-0.05,-0.023
1670264249.719982,-9.492,-0.676,4.26,0.1298,0.7538,0.1779,0.022,-0.04,-0.011
1670264249.7599819,-9.391,-0.711,4.252,0.1292,0.7532,0.1704,0.023,-0.042,-0.02
1670264249.799982,-9.489,-0.715,4.096,0.1277,0.7516,0.1734,-0.02,-0.073,-0.032
1670264249.839982,-9.315,-0.854,4.22,0.1282,0.7533000000000001,0.1789,-0.20400000000000001,-0.198,-0.041
1670264249.879982,-9.598,-0.777,4.312,0.12760000000000002,0.7535000000000001,0.1726,-0.18,-0.101,-0.021
1670264249.919982,-9.377,-0.647,4.469,0.113,0.7525000000000001,0.1773,-0.054,-0.027,-0.017
1670264249.959982,-9.361,-0.793,4.354,0.1216,0.7588,0.1751,-0.021,-0.022,-0.011
1670264249.9999819,-9.428,-0.78,4.3870000000000005,0.1272,0.7583000000000001,0.17370000000000002,0.004,-0.011,-0.008
1670264250.039982,-9.367,-0.808,4.396,0.1275,0.7566,0.17270000000000002,0.004,-0.021,-0.005
1670264250.079982,-9.393,-0.842,4.346,0.1262,0.7564000000000001,0.17600000000000002,-0.002,-0.015,-0.004
1670264250.119982,-9.379,-0.811,4.356,0.1257,0.755,0.1719,0.013000000000000001,-0.012,-0.009000000000000001
1670264250.159982,-9.411,-0.791,4.314,0.1155,0.7556,0.17500000000000002,0.018000000000000002,-0.005,-0.01
1670264250.199982,-9.365,-0.84,4.425,0.1252,0.7576,0.1746,0.008,-0.007,-0.004
1670264250.239982,-9.375,-0.8290000000000001,4.358,0.1269,0.7591,0.1883,0.005,-0.007,-0.003
1670264250.279982,-9.388,-0.846,4.378,0.1278,0.757,0.18580000000000002,0.021,-0.01,-0.012
1670264250.319982,-9.404,-0.846,4.304,0.1255,0.7601,0.17220000000000002,0.003,-0.018000000000000002,-0.009000000000000001
1670264250.359982,-9.353,-0.773,4.421,0.1254,0.7586,0.19640000000000002,0.01,-0.001,0.002
1670264250.399982,-9.388,-0.833,4.348,0.1273,0.7587,0.17650000000000002,0.037,0.003,-0.005
1670264250.439981,-9.335,-0.879,4.386,0.1227,0.7567,0.1705,0.029,0.004,-0.012
1670264250.479981,-9.411,-0.8180000000000001,4.282,0.1269,0.7601,0.1703,0.006,-0.01,0.007
1670264250.519981,-9.382,-0.744,4.3020000000000005,0.126,0.7583000000000001,0.1694,0.021,-0.009000000000000001,-0.003
1670264250.5599809,-9.414,-0.838,4.381,0.12610000000000002,0.7585000000000001,0.171,0.038,-0.007,-0.012
1670264250.599981,-9.393,-0.847,4.327,0.12860000000000002,0.7595000000000001,0.1715,0.028,-0.012,-0.001
1670264250.639981,-9.326,-0.842,4.316,0.1277,0.7566,0.17,0.002,-0.012,-0.005
1670264250.679981,-9.377,-0.8320000000000001,4.288,0.12760000000000002,0.7579,0.171,0.014,-0.013000000000000001,-0.009000000000000001
1670264250.719981,-9.487,-0.8150000000000001,4.321,0.1292,0.7621,0.1749,0.007,-0.011,0.005
1670264250.759981,-9.415000000000001,-0.8270000000000001,4.358,0.12710000000000002,0.7583000000000001,0.1694,0.019,0.011,-0.013000000000000001
1670264250.7999809,-9.347,-0.8290000000000001,4.343,0.1272,0.7569,0.1693,-0.003,0.034,0.003
1670264250.839981,-9.424,-0.756,4.255,0.1272,0.7605000000000001,0.1706,0.019,0.017,0.0
1670264250.879981,-9.464,-0.8150000000000001,4.261,0.1272,0.7544000000000001,0.1683,0.012,0.037,0.0
1670264250.919981,-9.387,-0.8290000000000001,4.346,0.1288,0.7585000000000001,0.16920000000000002,0.032,0.019,-0.015
1670264250.959981,-9.39,-0.802,4.313,0.12660000000000002,0.7578,0.17020000000000002,0.016,-0.009000000000000001,-0.021
1670264250.999981,-9.424,-0.893,4.233,0.1272,0.7599,0.1696,0.019,-0.015,-0.018000000000000002
1670264251.039981,-9.461,-0.886,4.167,0.12990000000000002,0.7577,0.16790000000000002,-0.005,-0.007,0.006
1670264251.079981,-9.434000000000001,-0.854,4.276,0.1272,0.7596,0.169,-0.006,-0.002,0.006
1670264251.119981,-9.466000000000001,-0.777,4.285,0.1273,0.7576,0.1705,0.012,-0.011,0.003
1670264251.159981,-9.409,-0.796,4.235,0.126,0.7585000000000001,0.1704,0.038,-0.012,-0.019
1670264251.199981,-9.479000000000001,-0.865,4.264,0.12710000000000002,0.7591,0.1694,0.022,-0.018000000000000002,-0.007
1670264251.239981,-9.409,-0.843,4.281,0.128,0.7577,0.16770000000000002,-0.004,-0.016,-0.004
1670264251.279981,-9.397,-0.803,4.263,0.1272,0.7586,0.1681,0.012,-0.026000000000000002,-0.017
1670264251.319981,-9.455,-0.877,4.188,0.1265,0.7611,0.168,0.01,-0.018000000000000002,-0.012
1670264251.359981,-9.451,-0.881,4.203,0.12840000000000001,0.7603000000000001,0.1686,0.001,-0.014,-0.004
1670264251.399981,-9.39,-0.8180000000000001,4.291,0.1295,0.7572,0.1716,0.008,-0.011,-0.001
1670264251.439981,-9.424,-0.8280000000000001,4.194,0.128,0.758,0.1688,0.029,-0.016,-0.007
1670264251.399981,-9.406,-0.852,4.248,0.12760000000000002,0.7596,0.16570000000000001,0.035,-0.013000000000000001,-0.013000000000000001
1670264251.439981,-9.436,-0.861,4.226,0.1279,0.7601,0.16970000000000002,0.023,-0.012,-0.007
1670264251.47998,-9.442,-0.8240000000000001,4.255,0.12510000000000002,0.7577,0.1709,0.017,-0.014,0.002
1670264251.51998,-9.409,-0.86,4.257,0.1173,0.7539,0.17250000000000001,0.025,-0.014,-0.003
1670264251.55998,-9.365,-0.84,4.297,0.1268,0.7577,0.168,0.032,-0.025,-0.018000000000000002
1670264251.5999799,-9.454,-0.8210000000000001,4.266,0.1232,0.7546,0.1688,0.017,-0.027,-0.019
1670264251.63998,-9.355,-0.868,4.281,0.1254,0.7586,0.16540000000000002,0.018000000000000002,-0.018000000000000002,-0.008
1670264251.67998,-9.48,-0.8200000000000001,4.203,0.1288,0.7563000000000001,0.1691,0.023,-0.008,-0.006
1670264251.71998,-9.448,-0.84,4.186,0.12610000000000002,0.7602,0.1685,0.022,-0.005,-0.016
1670264251.75998,-9.407,-0.876,4.195,0.1208,0.7548,0.1688,0.013000000000000001,-0.024,-0.001
1670264251.79998,-9.43,-0.806,4.21,0.12710000000000002,0.7583000000000001,0.1716,0.019,-0.028,-0.017
1670264251.83998,-9.448,-0.809,4.291,0.1223,0.755,0.1756,0.031,-0.013000000000000001,-0.018000000000000002
1670264251.87998,-9.437,-0.875,4.253,0.12860000000000002,0.7571,0.16540000000000002,0.023,-0.025,-0.012
1670264251.91998,-9.415000000000001,-0.835,4.238,0.1259,0.7571,0.1683,0.01,-0.03,-0.023
1670264251.95998,-9.423,-0.908,4.238,0.1255,0.7565000000000001,0.16970000000000002,0.01,-0.027,-0.01
1670264251.99998,-9.386000000000001,-0.794,4.333,0.12810000000000002,0.7578,0.18760000000000002,0.012,-0.002,-0.001
1670264252.03998,-9.438,-0.863,4.311,0.12350000000000001,0.7591,0.1703,0.027,-0.001,-0.011
1670264252.07998,-9.378,-0.875,4.22,0.11760000000000001,0.7588,0.19260000000000002,0.0,-0.018000000000000002,-0.001
1670264252.11998,-9.484,-0.976,4.346,0.1258,0.7569,0.1623,-0.067,0.039,0.032
1670264252.15998,-9.501,-1.0070000000000001,4.281,0.1273,0.7605000000000001,0.1633,-0.178,0.10300000000000001,0.003
1670264252.19998,-9.376,-0.791,4.024,0.128,0.763,0.163,-0.17200000000000001,0.09,-0.01
1670264252.23998,-9.435,-0.859,4.18,0.1274,0.7621,0.161,-0.115,0.002,0.006
1670264252.27998,-9.473,-0.887,4.097,0.1268,0.7594000000000001,0.1608,-0.059000000000000004,-0.003,-0.017
1670264252.31998,-9.502,-0.976,4.136,0.1288,0.7622,0.166,-0.041,-0.019,-0.023
1670264252.35998,-9.512,-0.911,4.133,0.1296,0.7636000000000001,0.1608,-0.034,-0.005,-0.003
1670264252.39998,-9.48,-0.9460000000000001,4.085,0.1272,0.766,0.1572,-0.022,-0.029,-0.019
1670264252.43998,-9.409,-0.882,4.124,0.1298,0.7625000000000001,0.1607,0.029,-0.049,-0.029
1670264252.47998,-9.365,-0.6990000000000001,4.057,0.1254,0.7621,0.15990000000000001,0.124,-0.092,-0.047
1670264252.519979,-9.565,-1.056,4.196,0.1223,0.7609,0.15990000000000001,0.195,-0.115,-0.04
1670264252.559979,-9.446,-0.984,4.279,0.1233,0.7612,0.1635,0.135,-0.039,-0.01
1670264252.599979,-9.413,-0.9490000000000001,4.271,0.12430000000000001,0.7629,0.1671,0.138,-0.047,-0.014
1670264252.639979,-9.445,-0.9510000000000001,4.305,0.1227,0.7608,0.1668,0.07200000000000001,-0.022,-0.004
1670264252.679979,-9.428,-0.891,4.3100000000000005,0.1277,0.7611,0.1705,0.051000000000000004,-0.022,-0.006
1670264252.719979,-9.431000000000001,-0.962,4.23,0.1231,0.7592,0.1693,0.039,-0.026000000000000002,-0.008
1670264252.759979,-9.384,-0.868,4.321,0.12240000000000001,0.7586,0.1656,0.042,-0.027,-0.009000000000000001
1670264252.799979,-9.397,-0.885,4.289,0.1274,0.7603000000000001,0.1706,0.042,-0.017,-0.011
1670264252.839979,-9.378,-0.869,4.28,0.1246,0.7584000000000001,0.1665,0.039,-0.017,-0.01
1670264252.879979,-9.408,-0.852,4.348,0.1233,0.7594000000000001,0.1713,0.038,-0.021,-0.01
1670264252.919979,-9.46,-0.841,4.236,0.1257,0.7602,0.1694,0.027,-0.006,-0.006
1670264252.959979,-9.418000000000001,-0.851,4.337,0.1254,0.7584000000000001,0.1671,0.019,-0.009000000000000001,-0.011
1670264252.999979,-9.394,-0.845,4.279,0.12380000000000001,0.7568,0.1676,0.02,-0.021,-0.008
1670264253.039979,-9.333,-0.904,4.3180000000000005,0.1257,0.7597,0.17120000000000002,0.008,-0.021,-0.014
1670264253.079979,-9.403,-0.846,4.329,0.1178,0.7565000000000001,0.1668,0.004,-0.01,0.007
1670264253.119979,-9.394,-0.8290000000000001,4.355,0.12350000000000001,0.7595000000000001,0.17070000000000002,0.024,-0.002,-0.008
1670264253.159979,-9.366,-0.9420000000000001,4.293,0.1236,0.7612,0.1694,0.022,-0.001,-0.012
1670264253.199979,-9.418000000000001,-0.847,4.314,0.12190000000000001,0.7603000000000001,0.1686,-0.007,-0.021,0.009000000000000001
1670264253.239979,-9.396,-0.839,4.231,0.1245,0.7605000000000001,0.16970000000000002,0.027,-0.018000000000000002,-0.014
1670264253.279979,-9.461,-0.8270000000000001,4.322,0.12440000000000001,0.761,0.1713,0.035,-0.02,-0.02
1670264253.319979,-9.409,-0.888,4.293,0.1247,0.7567,0.1663,0.011,-0.026000000000000002,-0.004
1670264253.359979,-9.378,-0.837,4.237,0.12560000000000002,0.7579,0.1704,0.03,-0.022,-0.02
1670264253.399979,-9.421,-0.866,4.268,0.1255,0.7572,0.16820000000000002,0.023,-0.018000000000000002,-0.008
1670264253.439979,-9.463000000000001,-0.857,4.282,0.1252,0.7586,0.1676,-0.007,0.001,0.005
1670264253.479979,-9.382,-0.855,4.323,0.12610000000000002,0.7567,0.1696,0.011,-0.002,-0.005
1670264253.519979,-9.391,-0.844,4.29,0.12340000000000001,0.7571,0.16840000000000002,0.019,-0.012,-0.009000000000000001
1670264253.559978,-9.391,-0.848,4.245,0.1268,0.7562,0.169,0.011,-0.013000000000000001,0.005
1670264253.599978,-9.46,-0.8270000000000001,4.251,0.1253,0.7605000000000001,0.1718,0.029,-0.013000000000000001,-0.005
1670264253.639978,-9.367,-0.8250000000000001,4.36,0.1252,0.7564000000000001,0.1694,0.033,-0.023,-0.027
1670264253.679978,-9.389,-0.906,4.277,0.1255,0.7584000000000001,0.1685,-0.002,-0.028,-0.008
1670264253.719978,-9.411,-0.882,4.29,0.1246,0.7571,0.1704,0.004,-0.017,-0.007
1670264253.759978,-9.406,-0.805,4.312,0.12050000000000001,0.7589,0.16590000000000002,0.02,-0.004,-0.015
1670264253.799978,-9.419,-0.867,4.32,0.12000000000000001,0.7586,0.1689,0.021,-0.014,-0.001
1670264253.839978,-9.429,-0.861,4.2940000000000005,0.1211,0.7599,0.19720000000000001,0.027,-0.014,0.0
1670264253.879978,-9.405,-0.8300000000000001,4.252,0.12430000000000001,0.7572,0.17600000000000002,0.03,-0.012,-0.006
1670264253.919978,-9.415000000000001,-0.858,4.315,0.1246,0.7604000000000001,0.1749,0.032,-0.013000000000000001,-0.005
1670264253.959978,-9.399000000000001,-0.8240000000000001,4.327,0.12510000000000002,0.7582,0.1537,0.018000000000000002,-0.007,-0.005
1670264253.999978,-9.438,-0.843,4.259,0.1258,0.7566,0.17,0.01,-0.01,-0.01
1670264254.039978,-9.43,-0.848,4.259,0.11370000000000001,0.7561,0.16970000000000002,0.006,-0.004,-0.003
1670264254.079978,-9.41,-0.841,4.272,0.12560000000000002,0.7587,0.1685,0.006,-0.008,0.001
1670264254.119978,-9.357,-0.833,4.351,0.12490000000000001,0.7605000000000001,0.1665,0.02,-0.013000000000000001,-0.012
1670264254.159978,-9.450000000000001,-0.843,4.29,0.1232,0.7552,0.17270000000000002,0.026000000000000002,-0.014,-0.01
1670264254.199978,-9.408,-0.844,4.373,0.1226,0.7558,0.16870000000000002,0.008,0.0,-0.003
1670264254.239978,-9.424,-0.801,4.291,0.1267,0.7586,0.1709,0.021,0.002,-0.001
1670264254.279978,-9.423,-0.849,4.279,0.1254,0.7566,0.1701,0.015,-0.002,0.001
1670264254.319978,-9.452,-0.8230000000000001,4.276,0.1253,0.7569,0.167,0.018000000000000002,-0.005,-0.003
1670264254.359978,-9.385,-0.849,4.275,0.12810000000000002,0.7597,0.1729,0.02,-0.001,-0.012
1670264254.399978,-9.379,-0.849,4.2780000000000005,0.129,0.7596,0.1704,0.026000000000000002,-0.011,-0.003
1670264254.439978,-9.336,-0.865,4.253,0.1255,0.7567,0.1666,0.01,-0.017,-0.009000000000000001
1670264254.4799778,-9.482,-0.81,4.249,0.1272,0.7599,0.17020000000000002,0.01,-0.005,0.001
1670264254.519978,-9.417,-0.788,4.3260000000000005,0.12480000000000001,0.7586,0.1666,0.036000000000000004,0.002,-0.007
1670264254.559978,-9.411,-0.901,4.267,0.12190000000000001,0.7589,0.1698,0.022,-0.001,-0.011
1670264254.599977,-9.405,-0.8180000000000001,4.244,0.1298,0.7594000000000001,0.1696,-0.003,-0.027,-0.001
1670264254.639977,-9.452,-0.806,4.2780000000000005,0.1263,0.7588,0.1686,0.013000000000000001,-0.027,-0.013000000000000001
1670264254.679977,-9.468,-0.833,4.245,0.1269,0.7588,0.1678,0.026000000000000002,-0.012,-0.017
1670264254.719977,-9.383000000000001,-0.839,4.396,0.1255,0.7561,0.16840000000000002,0.014,-0.012,-0.005
1670264254.759977,-9.428,-0.805,4.339,0.1252,0.7572,0.16820000000000002,0.008,-0.016,-0.01
1670264254.799977,-9.457,-0.846,4.261,0.126,0.7593000000000001,0.1663,0.014,-0.009000000000000001,-0.001
1670264254.839977,-9.474,-0.8270000000000001,4.3180000000000005,0.126,0.7605000000000001,0.1699,0.0,-0.001,0.006
1670264254.879977,-9.381,-0.863,4.24,0.1267,0.7591,0.16970000000000002,0.019,-0.003,-0.008
1670264254.919977,-9.58,-0.705,4.409,0.12250000000000001,0.758,0.17070000000000002,0.15,0.085,-0.016
1670264254.959977,-9.487,-0.743,4.2940000000000005,0.1282,0.7576,0.1694,0.261,0.13,0.027
1670264254.999977,-9.385,-0.8230000000000001,4.144,0.126,0.7531,0.1671,0.199,0.064,0.008
1670264255.039977,-9.396,-0.802,4.12,0.13,0.7527,0.1698,0.108,0.001,-0.004
1670264255.079977,-9.442,-0.724,4.164,0.1258,0.7537,0.1731,0.041,-0.024,-0.005
1670264255.119977,-9.461,-0.664,4.211,0.1282,0.7505000000000001,0.1695,0.026000000000000002,-0.018000000000000002,-0.014
1670264255.159977,-9.434000000000001,-0.714,4.216,0.12990000000000002,0.755,0.1729,0.006,-0.013000000000000001,-0.013000000000000001
1670264255.199977,-9.496,-0.717,4.133,0.1285,0.7528,0.1709,-0.008,-0.01,-0.004
1670264255.239977,-9.402000000000001,-0.733,4.1610000000000005,0.12660000000000002,0.7519,0.16970000000000002,0.0,-0.037,-0.031
1670264255.2799768,-9.384,-0.772,4.105,0.12090000000000001,0.7478,0.17950000000000002,-0.095,-0.106,-0.031
1670264255.319977,-9.402000000000001,-0.908,4.171,0.125,0.7543000000000001,0.1746,-0.21,-0.166,-0.034
1670264255.359977,-9.518,-0.555,4.398,0.12560000000000002,0.7566,0.1685,-0.069,-0.034,-0.028
1670264255.399977,-9.38,-0.857,4.233,0.125,0.7558,0.17220000000000002,-0.037,-0.023,-0.013000000000000001
1670264255.439977,-9.492,-0.792,4.333,0.1245,0.7582,0.1723,-0.017,-0.009000000000000001,-0.007
1670264255.479977,-9.397,-0.899,4.2940000000000005,0.12340000000000001,0.7567,0.1695,-0.006,-0.021,-0.008
1670264255.5199769,-9.419,-0.799,4.348,0.1274,0.7593000000000001,0.1718,-0.001,-0.019,-0.007
1670264255.559977,-9.382,-0.836,4.339,0.1257,0.7596,0.16720000000000002,0.022,-0.027,-0.016
1670264255.599977,-9.423,-0.8180000000000001,4.261,0.12610000000000002,0.7567,0.1663,0.014,-0.018000000000000002,-0.01
1670264255.639977,-9.429,-0.839,4.314,0.1237,0.759,0.1708,0.019,-0.01,-0.011
1670264255.679977,-9.409,-0.8190000000000001,4.317,0.1213,0.7571,0.1756,0.018000000000000002,-0.013000000000000001,-0.008
1670264255.719976,-9.393,-0.878,4.2860000000000005,0.12480000000000001,0.7582,0.1411,0.012,-0.019,-0.007
1670264255.759976,-9.408,-0.859,4.303,0.12560000000000002,0.7595000000000001,0.1542,0.019,-0.016,-0.009000000000000001
1670264255.799976,-9.406,-0.838,4.317,0.11810000000000001,0.7585000000000001,0.1678,0.014,-0.033,-0.016
1670264255.839976,-9.437,-0.899,4.331,0.124,0.7588,0.1736,0.024,-0.028,-0.018000000000000002
1670264255.879976,-9.405,-0.8260000000000001,4.341,0.12300000000000001,0.7576,0.1689,0.024,-0.029,-0.017
1670264255.919976,-9.443,-0.772,4.308,0.12560000000000002,0.7578,0.1694,0.013000000000000001,-0.016,-0.001
1670264255.959976,-9.411,-0.877,4.358,0.12490000000000001,0.7587,0.17270000000000002,0.031,0.0,-0.012
1670264255.999976,-9.351,-0.85,4.338,0.12250000000000001,0.7569,0.17020000000000002,0.019,-0.002,-0.006
1670264256.039976,-9.370000000000001,-0.901,4.299,0.1274,0.7574000000000001,0.171,-0.011,-0.015,0.008
1670264256.0799758,-9.42,-0.759,4.346,0.1247,0.7605000000000001,0.1703,0.021,-0.023,-0.015
1670264256.119976,-9.416,-0.897,4.311,0.1255,0.7602,0.168,0.033,-0.016,-0.02
1670264256.159976,-9.363,-0.873,4.358,0.1254,0.7586,0.17320000000000002,0.01,-0.021,-0.011
1670264256.199976,-9.398,-0.848,4.293,0.1221,0.7567,0.1739,0.018000000000000002,-0.028,-0.018000000000000002
1670264256.239976,-9.352,-0.845,4.353,0.12480000000000001,0.7562,0.16820000000000002,0.02,-0.019,-0.014
1670264256.279976,-9.4,-0.884,4.364,0.12390000000000001,0.7574000000000001,0.1691,0.009000000000000001,-0.001,0.004
1670264256.3199759,-9.358,-0.8320000000000001,4.315,0.1222,0.7578,0.17070000000000002,0.02,-0.002,-0.003
1670264256.359976,-9.354000000000001,-0.866,4.329,0.1199,0.7573000000000001,0.168,0.02,-0.014,-0.004
1670264256.399976,-9.424,-0.805,4.282,0.12560000000000002,0.7563000000000001,0.1718,0.019,-0.02,0.001
1670264256.439976,-9.4,-0.844,4.321,0.12390000000000001,0.7575000000000001,0.1699,0.039,-0.023,-0.017
1670264256.479976,-9.386000000000001,-0.873,4.272,0.12190000000000001,0.7563000000000001,0.1713,0.036000000000000004,-0.021,-0.015
1670264256.519976,-9.379,-0.86,4.327,0.1242,0.7583000000000001,0.1721,0.0,-0.016,0.0
1670264256.5599759,-9.402000000000001,-0.835,4.315,0.1241,0.757,0.17220000000000002,0.014,-0.01,-0.003
1670264256.599976,-9.398,-0.8290000000000001,4.337,0.12190000000000001,0.7534000000000001,0.16690000000000002,0.024,-0.01,-0.012
1670264256.639976,-9.409,-0.847,4.251,0.12490000000000001,0.7574000000000001,0.1693,0.012,-0.003,-0.005
1670264256.679976,-9.379,-0.851,4.306,0.1258,0.7571,0.1716,0.023,-0.014,-0.006
1670264256.719976,-9.411,-0.833,4.268,0.127,0.7555000000000001,0.1676,0.016,-0.013000000000000001,-0.01
1670264256.759975,-9.397,-0.8270000000000001,4.343,0.1242,0.7601,0.1705,0.013000000000000001,-0.014,-0.003
1670264256.799975,-9.338000000000001,-0.846,4.34,0.1259,0.7567,0.1698,0.019,-0.024,-0.014
1670264256.839975,-9.414,-0.864,4.263,0.12610000000000002,0.758,0.16870000000000002,0.008,-0.017,-0.009000000000000001
1670264256.879975,-9.429,-0.864,4.269,0.1241,0.76,0.1729,0.005,-0.02,-0.012
1670264256.919975,-9.441,-0.84,4.307,0.12290000000000001,0.7573000000000001,0.1698,0.011,-0.018000000000000002,-0.012
1670264256.959975,-9.408,-0.855,4.336,0.1247,0.7586,0.1709,0.021,-0.014,-0.01
1670264256.999975,-9.38,-0.867,4.3340000000000005,0.1236,0.7591,0.1701,0.009000000000000001,-0.015,-0.009000000000000001
1670264257.039975,-9.389,-0.851,4.315,0.12430000000000001,0.7548,0.16570000000000001,0.018000000000000002,-0.016,0.0
1670264257.079975,-9.428,-0.845,4.227,0.12380000000000001,0.7583000000000001,0.1691,0.037,-0.01,-0.005
1670264257.1199749,-9.386000000000001,-0.838,4.337,0.12350000000000001,0.7568,0.1716,0.02,-0.006,-0.007
1670264257.159975,-9.386000000000001,-0.866,4.312,0.1217,0.755,0.16740000000000002,0.014,-0.014,-0.005
1670264257.199975,-9.387,-0.8270000000000001,4.308,0.1272,0.7583000000000001,0.17170000000000002,0.027,-0.011,-0.009000000000000001
1670264257.239975,-9.379,-0.8170000000000001,4.272,0.125,0.7585000000000001,0.169,0.023,-0.02,-0.015
1670264257.279975,-9.370000000000001,-0.852,4.337,0.1124,0.7532,0.17980000000000002,0.013000000000000001,-0.01,-0.013000000000000001
1670264257.319975,-9.446,-0.894,4.317,0.12240000000000001,0.7578,0.1756,0.013000000000000001,-0.007,0.0
1670264257.3599749,-9.471,-0.798,4.309,0.1246,0.7575000000000001,0.1675,0.008,0.002,0.007
1670264257.399975,-9.49,-0.792,4.267,0.12440000000000001,0.7583000000000001,0.16970000000000002,0.013000000000000001,0.018000000000000002,-0.003
1670264257.439975,-9.418000000000001,-0.924,4.3020000000000005,0.12390000000000001,0.7578,0.1716,-0.025,0.036000000000000004,0.008
1670264257.479975,-9.418000000000001,-0.9580000000000001,4.365,0.124,0.7592,0.1701,-0.145,0.073,0.031
1670264257.519975,-9.515,-1.046,4.41,0.1106,0.7552,0.16010000000000002,-0.191,0.11900000000000001,0.024
1670264257.559975,-9.417,-0.707,4.179,0.128,0.7607,0.17370000000000002,-0.13,0.065,0.002
1670264257.5999749,-9.503,-0.866,4.107,0.1298,0.7591,0.16670000000000001,-0.075,0.014,0.0
1670264257.639975,-9.382,-0.89,4.108,0.1282,0.7612,0.14250000000000002,-0.043000000000000003,-0.004,-0.015
1670264257.679975,-9.409,-0.8290000000000001,4.099,0.12660000000000002,0.7615000000000001,0.161,-0.01,-0.002,-0.01
1670264257.719975,-9.366,-0.685,4.046,0.1305,0.7635000000000001,0.1597,0.066,-0.074,-0.031
1670264257.759975,-9.514,-1.0070000000000001,4.146,0.12710000000000002,0.7609,0.1643,0.158,-0.098,-0.039
1670264257.799974,-9.466000000000001,-0.84,4.19,0.12440000000000001,0.7575000000000001,0.17070000000000002,0.158,-0.061,-0.014
1670264257.839974,-9.442,-0.91,4.242,0.12760000000000002,0.76,0.165,0.156,-0.045,-0.025
1670264257.879974,-9.499,-1.004,4.329,0.1277,0.7611,0.1694,0.076,-0.03,-0.004
1670264257.9199739,-9.39,-0.891,4.272,0.1241,0.758,0.166,0.062,-0.029,-0.005
1670264257.959974,-9.382,-0.92,4.288,0.12610000000000002,0.7598,0.1683,0.029,-0.027,-0.023
1670264257.999974,-9.441,-0.881,4.269,0.1255,0.7603000000000001,0.1673,0.027,-0.021,-0.018000000000000002
1670264258.039974,-9.442,-0.915,4.206,0.12560000000000002,0.7563000000000001,0.1678,0.01,-0.01,0.0
1670264258.079974,-9.404,-0.849,4.299,0.12350000000000001,0.7564000000000001,0.16870000000000002,0.02,-0.01,0.001
1670264258.119974,-9.433,-0.852,4.305,0.1258,0.7588,0.1693,0.034,-0.013000000000000001,-0.005
1670264258.1599739,-9.447000000000001,-0.834,4.322,0.1254,0.7593000000000001,0.1668,0.044,-0.011,-0.006
1670264258.199974,-9.384,-0.869,4.232,0.127,0.7612,0.1701,0.028,-0.006,-0.003
1670264258.239974,-9.424,-0.842,4.329,0.1241,0.7571,0.1694,0.021,-0.008,0.0
1670264258.279974,-9.455,-0.842,4.285,0.1258,0.7564000000000001,0.16620000000000001,0.014,-0.01,-0.006
1670264258.319974,-9.481,-0.852,4.233,0.125,0.7596,0.16820000000000002,0.014,-0.016,-0.009000000000000001
1670264258.359974,-9.423,-0.852,4.304,0.12380000000000001,0.7608,0.1676,0.008,-0.01,-0.004
1670264258.3999739,-9.384,-0.867,4.253,0.1236,0.7573000000000001,0.1666,0.017,-0.009000000000000001,-0.005
1670264258.439974,-9.444,-0.87,4.2170000000000005,0.1257,0.757,0.16920000000000002,0.014,-0.015,0.0
1670264258.479974,-9.394,-0.863,4.214,0.1252,0.7608,0.1671,0.019,-0.02,-0.005
1670264258.519974,-9.408,-0.858,4.293,0.12560000000000002,0.7586,0.1646,0.024,-0.029,-0.007
1670264258.559974,-9.397,-0.848,4.309,0.1206,0.7604000000000001,0.1721,0.025,-0.021,-0.011
1670264258.599974,-9.392,-0.845,4.317,0.1216,0.7589,0.1661,0.025,-0.022,-0.01
1670264258.6399739,-9.418000000000001,-0.846,4.273,0.1258,0.7571,0.1694,0.022,-0.015,-0.012
1670264258.679974,-9.418000000000001,-0.8230000000000001,4.255,0.126,0.76,0.16770000000000002,0.025,-0.022,-0.009000000000000001
1670264258.719974,-9.422,-0.909,4.256,0.12480000000000001,0.7584000000000001,0.169,0.019,-0.027,-0.014
1670264258.759974,-9.479000000000001,-0.8130000000000001,4.343,0.12860000000000002,0.7596,0.169,0.008,-0.021,-0.005
1670264258.799974,-9.467,-0.811,4.303,0.1254,0.7599,0.1698,0.019,-0.009000000000000001,-0.008
1670264258.839973,-9.342,-0.909,4.287,0.12300000000000001,0.7592,0.16820000000000002,0.012,-0.018000000000000002,-0.011
1670264258.879973,-9.395,-0.844,4.252,0.12610000000000002,0.7588,0.1671,-0.005,-0.021,0.0
1670264258.919973,-9.449,-0.845,4.23,0.12480000000000001,0.7578,0.16870000000000002,0.023,-0.011,0.001
1670264258.9599729,-9.456,-0.802,4.24,0.12300000000000001,0.7569,0.16820000000000002,0.039,-0.003,-0.014
1670264258.999973,-9.437,-0.881,4.275,0.1268,0.7589,0.16790000000000002,0.02,-0.013000000000000001,-0.005
1670264259.039973,-9.4,-0.865,4.324,0.126,0.7546,0.1774,0.006,-0.029,-0.01
1670264259.079973,-9.459,-0.807,4.319,0.1246,0.7572,0.17,0.024,-0.029,-0.016
1670264259.119973,-9.501,-0.788,4.307,0.12610000000000002,0.7582,0.171,0.022,-0.015,-0.013000000000000001
1670264259.159973,-9.422,-0.89,4.3,0.1255,0.7579,0.1688,0.013000000000000001,-0.005,-0.012
1670264259.1999729,-9.415000000000001,-0.845,4.315,0.1255,0.7591,0.16820000000000002,0.01,-0.014,-0.004
1670264259.239973,-9.424,-0.8180000000000001,4.2090000000000005,0.1279,0.7579,0.1724,0.016,-0.015,0.003
1670264259.279973,-9.451,-0.8140000000000001,4.237,0.1145,0.7561,0.17750000000000002,0.034,-0.013000000000000001,-0.015
1670264259.319973,-9.446,-0.8240000000000001,4.266,0.12760000000000002,0.756,0.1678,0.021,-0.016,-0.008
1670264259.359973,-9.338000000000001,-0.864,4.304,0.12350000000000001,0.7577,0.1698,0.002,-0.027,-0.01
1670264259.399973,-9.445,-0.877,4.257,0.125,0.7605000000000001,0.18100000000000002,0.009000000000000001,-0.023,-0.014
1670264259.4399729,-9.464,-0.888,4.242,0.12490000000000001,0.7571,0.1665,0.02,-0.021,-0.013000000000000001
1670264259.479973,-9.4,-0.858,4.279,0.10880000000000001,0.7539,0.1756,0.012,-0.02,0.0
1670264259.519973,-9.352,-0.8180000000000001,4.36,0.1253,0.7571,0.1694,0.018000000000000002,-0.018000000000000002,-0.012
1670264259.559973,-9.433,-0.899,4.266,0.12510000000000002,0.761,0.169,0.027,-0.02,-0.011
1670264259.599973,-9.397,-0.842,4.329,0.1247,0.7556,0.1705,0.002,-0.017,0.003
1670264259.639973,-9.367,-0.835,4.312,0.125,0.7567,0.1678,0.022,-0.005,-0.008
1670264259.679973,-9.416,-0.906,4.312,0.12190000000000001,0.7614000000000001,0.1709,0.005,-0.014,-0.008
1670264259.719973,-9.437,-0.846,4.29,0.1241,0.7609,0.1685,-0.005,-0.016,0.004
1670264259.759973,-9.422,-0.8300000000000001,4.251,0.1272,0.758,0.16790000000000002,0.019,-0.012,-0.016
1670264259.799973,-9.378,-0.9450000000000001,4.308,0.1232,0.756,0.1704,0.005,-0.02,0.004
1670264259.839973,-9.376,-0.835,4.284,0.125,0.7575000000000001,0.16820000000000002,-0.002,-0.012,0.008
1670264259.879972,-9.39,-0.851,4.335,0.1232,0.761,0.16870000000000002,0.029,-0.017,-0.009000000000000001
1670264259.919972,-9.394,-0.871,4.281,0.1282,0.7582,0.16920000000000002,0.017,-0.011,-0.001
1670264259.959972,-9.408,-0.851,4.357,0.1246,0.7585000000000001,0.1665,0.003,-0.012,0.011
1670264259.9999719,-9.391,-0.797,4.29,0.12560000000000002,0.7578,0.16620000000000001,0.029,-0.016,-0.007
1670264260.039972,-9.418000000000001,-0.835,4.3420000000000005,0.125,0.7566,0.169,0.03,-0.008,-0.008
1670264260.079972,-9.427,-0.852,4.285,0.1247,0.7568,0.1705,0.024,-0.013000000000000001,-0.013000000000000001
1670264260.119972,-9.464,-0.87,4.234,0.12560000000000002,0.7594000000000001,0.168,0.01,-0.016,-0.002
1670264260.159972,-9.434000000000001,-0.865,4.2700000000000005,0.1257,0.7586,0.1668,0.005,-0.016,-0.011
1670264260.199972,-9.394,-0.803,4.2620000000000005,0.1274,0.7575000000000001,0.16620000000000001,0.02,-0.016,-0.018000000000000002
1670264260.2399719,-9.423,-0.802,4.297,0.1285,0.7573000000000001,0.1685,0.045,-0.01,-0.004
1670264260.279972,-9.495000000000001,-0.874,4.309,0.12440000000000001,0.7573000000000001,0.16870000000000002,0.066,0.03,-0.013000000000000001
1670264260.319972,-9.348,-0.806,4.378,0.12940000000000002,0.7562,0.1671,0.131,0.065,0.017
1670264260.359972,-9.439,-0.729,4.239,0.1282,0.7571,0.1715,0.219,0.109,0.016
1670264260.399972,-9.436,-0.723,4.214,0.1255,0.7543000000000001,0.1726,0.189,0.05,-0.022
1670264260.439972,-9.511000000000001,-0.805,4.174,0.1262,0.7539,0.16970000000000002,0.083,0.003,-0.001
1670264260.479972,-9.454,-0.747,4.144,0.1282,0.7548,0.169,0.024,-0.019,-0.001
1670264260.519972,-9.361,-0.674,4.227,0.1269,0.753,0.1698,0.016,-0.036000000000000004,-0.03
1670264260.559972,-9.424,-0.737,4.188,0.1264,0.7561,0.168,-0.013000000000000001,-0.044,-0.022
1670264260.599972,-9.343,-0.9420000000000001,4.0440000000000005,0.1285,0.7565000000000001,0.17070000000000002,-0.198,-0.14400000000000002,-0.029
1670264260.639972,-9.615,-0.735,4.289,0.1255,0.7546,0.1721,-0.166,-0.105,-0.052000000000000005
1670264260.679972,-9.487,-0.718,4.272,0.1263,0.7587,0.1696,-0.098,-0.043000000000000003,-0.013000000000000001
1670264260.719972,-9.372,-0.853,4.315,0.12610000000000002,0.7613000000000001,0.1694,-0.015,-0.035,-0.001
1670264260.759972,-9.458,-0.787,4.293,0.1246,0.7571,0.1666,0.028,-0.021,-0.029
1670264260.799972,-9.391,-0.882,4.36,0.1253,0.762,0.16820000000000002,0.023,-0.027,-0.02
1670264260.839972,-9.370000000000001,-0.891,4.337,0.1246,0.7588,0.16770000000000002,0.0,-0.031,-0.004
1670264260.879972,-9.425,-0.8320000000000001,4.28,0.12390000000000001,0.7578,0.1696,0.019,-0.017,-0.018000000000000002
1670264260.919971,-9.413,-0.846,4.327,0.1262,0.7611,0.16790000000000002,0.018000000000000002,-0.003,0.0
1670264260.959971,-9.388,-0.873,4.375,0.1236,0.7603000000000001,0.169,0.017,-0.009000000000000001,0.001
1670264260.999971,-9.425,-0.854,4.272,0.1252,0.7575000000000001,0.1671,0.035,0.001,-0.003
1670264261.0399709,-9.412,-0.863,4.309,0.12300000000000001,0.7566,0.1731,0.018000000000000002,0.0,-0.001
1670264261.079971,-9.368,-0.902,4.3260000000000005,0.1228,0.7567,0.1691,0.011,-0.003,0.005
1670264261.119971,-9.384,-0.835,4.299,0.1257,0.757,0.168,0.024,-0.005,-0.011
1670264261.159971,-9.418000000000001,-0.838,4.2540000000000004,0.1253,0.7574000000000001,0.1694,0.02,-0.011,-0.01
1670264261.199971,-9.445,-0.877,4.259,0.1216,0.7588,0.18580000000000002,-0.007,-0.004,0.003
1670264261.239971,-9.399000000000001,-0.865,4.317,0.1212,0.7574000000000001,0.1456,0.021,-0.009000000000000001,-0.012
1670264261.279971,-9.406,-0.833,4.224,0.112,0.7539,0.14800000000000002,0.019,-0.009000000000000001,-0.013000000000000001
1670264261.319971,-9.43,-0.838,4.246,0.1221,0.7554000000000001,0.17120000000000002,0.007,-0.01,0.007
1670264261.359971,-9.454,-0.838,4.258,0.1272,0.7593000000000001,0.17350000000000002,0.019,-0.018000000000000002,-0.007
1670264261.399971,-9.443,-0.894,4.214,0.1246,0.758,0.1675,0.017,-0.007,0.001
1670264261.439971,-9.435,-0.792,4.343,0.12710000000000002,0.7576,0.1665,0.007,-0.007,0.01
1670264261.479971,-9.429,-0.86,4.235,0.126,0.7575000000000001,0.16970000000000002,0.034,-0.003,-0.007
1670264261.519971,-9.443,-0.873,4.211,0.12340000000000001,0.7574000000000001,0.16790000000000002,0.027,-0.004,-0.01
1670264261.559971,-9.405,-0.8230000000000001,4.301,0.12440000000000001,0.7583000000000001,0.16690000000000002,0.015,-0.004,0.009000000000000001
1670264261.599971,-9.372,-0.869,4.204,0.1268,0.7575000000000001,0.16820000000000002,0.015,0.0,-0.007
1670264261.639971,-9.47,-0.853,4.305,0.1257,0.7585000000000001,0.16570000000000001,0.012,-0.012,-0.011
1670264261.679971,-9.526,-0.782,4.216,0.1232,0.7566,0.16740000000000002,0.031,0.01,0.004
1670264261.719971,-9.399000000000001,-0.923,4.263,0.1253,0.7598,0.16840000000000002,0.04,0.025,-0.011
1670264261.759971,-9.344,-0.8220000000000001,4.235,0.1257,0.7575000000000001,0.1653,0.015,-0.017,0.001
1670264261.799971,-9.454,-0.844,4.214,0.12190000000000001,0.7563000000000001,0.1676,0.004,-0.017,0.01
1670264261.839971,-9.455,-0.77,4.324,0.1253,0.7555000000000001,0.17020000000000002,0.042,0.0,-0.02
1670264261.879971,-9.423,-0.905,4.275,0.12510000000000002,0.7575000000000001,0.1656,0.039,-0.025,-0.005
1670264261.919971,-9.445,-0.8160000000000001,4.2540000000000004,0.12610000000000002,0.7583000000000001,0.1646,0.005,-0.022,0.003
1670264261.95997,-9.452,-0.795,4.233,0.1259,0.7588,0.1703,0.013000000000000001,-0.017,-0.019
1670264261.99997,-9.501,-0.801,4.285,0.1258,0.7589,0.16770000000000002,0.023,-0.02,-0.018000000000000002
1670264262.03997,-9.433,-0.881,4.258,0.12760000000000002,0.7561,0.17,0.013000000000000001,-0.002,-0.005
1670264262.07997,-9.382,-0.859,4.2540000000000004,0.1223,0.7579,0.1703,0.005,-0.023,-0.009000000000000001
1670264262.11997,-9.467,-0.788,4.199,0.1222,0.7572,0.168,0.009000000000000001,-0.021,0.0
1670264262.15997,-9.433,-0.808,4.263,0.1264,0.758,0.16840000000000002,0.033,-0.017,-0.016
1670264262.19997,-9.392,-0.89,4.229,0.12560000000000002,0.7582,0.1651,0.021,-0.027,-0.018000000000000002
1670264262.23997,-9.425,-0.864,4.266,0.1252,0.7578,0.163,0.015,-0.035,-0.012
1670264262.27997,-9.443,-0.797,4.324,0.1246,0.7576,0.1691,0.029,-0.028,-0.028
1670264262.31997,-9.442,-0.884,4.202,0.1252,0.7579,0.16820000000000002,0.007,-0.014,-0.015
1670264262.35997,-9.403,-0.893,4.257,0.12440000000000001,0.7589,0.16490000000000002,-0.006,-0.017,0.002
1670264262.39997,-9.431000000000001,-0.811,4.261,0.1258,0.7605000000000001,0.1701,0.02,-0.024,-0.013000000000000001
1670264262.43997,-9.434000000000001,-0.8230000000000001,4.299,0.12350000000000001,0.7575000000000001,0.1688,0.034,-0.021,-0.014
1670264262.47997,-9.413,-0.894,4.232,0.1257,0.7563000000000001,0.16870000000000002,0.014,-0.024,-0.013000000000000001
1670264262.51997,-9.367,-0.836,4.309,0.1257,0.7578,0.1694,0.021,-0.015,-0.009000000000000001
1670264262.55997,-9.429,-0.851,4.255,0.1263,0.7577,0.1689,0.021,-0.021,-0.004
1670264262.59997,-9.444,-0.837,4.3180000000000005,0.1241,0.7599,0.1694,0.025,-0.013000000000000001,-0.012
1670264262.63997,-9.402000000000001,-0.851,4.314,0.1269,0.759,0.1694,0.026000000000000002,-0.018000000000000002,-0.023
1670264262.67997,-9.388,-0.899,4.252,0.125,0.7581,0.1688,0.021,-0.028,-0.013000000000000001
1670264262.71997,-9.417,-0.8270000000000001,4.33,0.1255,0.7574000000000001,0.1694,0.018000000000000002,-0.033,-0.005
1670264262.75997,-9.411,-0.803,4.37,0.12380000000000001,0.7567,0.1701,0.026000000000000002,-0.027,-0.011
1670264262.79997,-9.4,-0.843,4.352,0.11810000000000001,0.7555000000000001,0.1746,0.026000000000000002,-0.025,-0.018000000000000002
1670264262.83997,-9.408,-0.8130000000000001,4.396,0.1246,0.7567,0.1676,0.008,-0.015,-0.014
1670264262.87997,-9.403,-0.808,4.359,0.1221,0.758,0.17020000000000002,0.018000000000000002,-0.018000000000000002,-0.013000000000000001
1670264262.91997,-9.368,-0.809,4.332,0.12240000000000001,0.7573000000000001,0.1676,0.014,-0.017,-0.017
1670264262.95997,-9.443,-0.872,4.324,0.125,0.7597,0.1701,0.007,-0.022,-0.003
1670264262.999969,-9.491,-0.9430000000000001,4.4030000000000005,0.12340000000000001,0.76,0.17070000000000002,-0.085,0.051000000000000004,0.012
1670264263.039969,-9.394,-0.9510000000000001,4.2860000000000005,0.11800000000000001,0.7544000000000001,0.18680000000000002,-0.147,0.108,0.023
1670264263.079969,-9.421,-0.79,4.142,0.12430000000000001,0.7599,0.1794,-0.11800000000000001,0.063,0.018000000000000002
1670264263.119969,-9.363,-0.905,4.0520000000000005,0.1254,0.7583000000000001,0.1699,-0.106,0.036000000000000004,0.007
1670264263.159969,-9.438,-0.916,4.175,0.1258,0.7607,0.17800000000000002,-0.049,-0.006,0.0
1670264263.199969,-9.557,-0.918,4.205,0.1259,0.7631,0.17200000000000001,-0.024,-0.018000000000000002,-0.021
1670264263.239969,-9.450000000000001,-0.895,4.1530000000000005,0.1254,0.7611,0.1613,-0.018000000000000002,-0.023,-0.017
1670264263.279969,-9.273,-0.613,4.132,0.1272,0.7601,0.1635,0.049,-0.077,-0.039
1670264263.319969,-9.503,-1.018,4.236,0.1236,0.7609,0.16540000000000002,0.181,-0.14100000000000001,-0.065
1670264263.359969,-9.432,-0.886,4.32,0.1257,0.7606,0.16490000000000002,0.17400000000000002,-0.058,-0.013000000000000001
1670264263.399969,-9.428,-0.961,4.343,0.1269,0.7603000000000001,0.16970000000000002,0.117,-0.029,-0.017
1670264263.439969,-9.454,-0.923,4.352,0.1211,0.7611,0.1668,0.074,-0.018000000000000002,-0.014
1670264263.479969,-9.4,-0.893,4.2540000000000004,0.125,0.7567,0.16640000000000002,0.037,-0.009000000000000001,0.0
1670264263.519969,-9.365,-0.8220000000000001,4.351,0.12490000000000001,0.7578,0.1718,0.044,-0.008,-0.001
1670264263.559969,-9.407,-0.874,4.329,0.1212,0.7562,0.16820000000000002,0.055,-0.014,-0.021
1670264263.599969,-9.353,-0.882,4.352,0.1263,0.7582,0.16820000000000002,0.032,-0.02,-0.009000000000000001
1670264263.639969,-9.406,-0.866,4.362,0.1212,0.7573000000000001,0.1693,0.011,-0.023,-0.009000000000000001
1670264263.679969,-9.4,-0.861,4.279,0.12300000000000001,0.7586,0.1681,0.017,-0.013000000000000001,-0.014
1670264263.719969,-9.446,-0.862,4.264,0.12350000000000001,0.7586,0.16820000000000002,0.019,-0.009000000000000001,-0.005
1670264263.759969,-9.364,-0.857,4.289,0.12510000000000002,0.7589,0.17020000000000002,0.021,-0.009000000000000001,-0.007
1670264263.799969,-9.423,-0.838,4.2540000000000004,0.11750000000000001,0.7572,0.16740000000000002,0.028,-0.023,-0.02
1670264263.839969,-9.418000000000001,-0.851,4.336,0.1222,0.7547,0.17120000000000002,0.034,-0.013000000000000001,-0.008
1670264263.879969,-9.396,-0.882,4.309,0.1242,0.7569,0.1693,0.006,-0.03,-0.004
1670264263.9199688,-9.4,-0.796,4.3790000000000004,0.12490000000000001,0.7582,0.16740000000000002,0.032,-0.019,-0.016
1670264263.959969,-9.378,-0.887,4.313,0.1242,0.7566,0.1691,0.038,-0.012,-0.026000000000000002
1670264263.999969,-9.44,-0.914,4.267,0.12380000000000001,0.7576,0.1685,-0.002,-0.014,0.007
1670264264.039968,-9.396,-0.833,4.282,0.1227,0.7558,0.1673,0.009000000000000001,-0.009000000000000001,0.004
1670264264.079968,-9.393,-0.854,4.276,0.1246,0.7575000000000001,0.1693,0.038,-0.009000000000000001,-0.016
1670264264.119968,-9.34,-0.894,4.303,0.12250000000000001,0.7577,0.1675,0.01,-0.018000000000000002,0.002
1670264264.159968,-9.370000000000001,-0.839,4.354,0.1221,0.757,0.1691,0.017,-0.024,-0.01
1670264264.199968,-9.432,-0.8230000000000001,4.385,0.1257,0.7596,0.1693,0.027,-0.013000000000000001,-0.013000000000000001
1670264264.239968,-9.427,-0.865,4.266,0.1222,0.7565000000000001,0.16920000000000002,0.015,0.0,0.009000000000000001
1670264264.279968,-9.404,-0.8210000000000001,4.311,0.12440000000000001,0.7582,0.1676,0.011,-0.004,-0.004
1670264264.319968,-9.418000000000001,-0.852,4.272,0.1254,0.7575000000000001,0.16870000000000002,0.026000000000000002,-0.01,-0.011
1670264264.359968,-9.473,-0.9480000000000001,4.236,0.1258,0.7585000000000001,0.16970000000000002,0.001,0.001,-0.004
1670264264.399968,-9.396,-0.789,4.32,0.12380000000000001,0.7564000000000001,0.1711,0.015,-0.003,0.003
1670264264.439968,-9.449,-0.8270000000000001,4.339,0.124,0.761,0.1686,0.035,0.003,-0.001
1670264264.479968,-9.424,-0.912,4.214,0.1163,0.7528,0.1713,0.019,0.013000000000000001,-0.009000000000000001
1670264264.519968,-9.383000000000001,-0.873,4.244,0.12490000000000001,0.7555000000000001,0.166,0.006,0.0,0.005
1670264264.559968,-9.386000000000001,-0.8200000000000001,4.3100000000000005,0.12190000000000001,0.7576,0.1701,0.024,-0.012,0.002
1670264264.599968,-9.501,-0.766,4.233,0.12490000000000001,0.7574000000000001,0.166,0.036000000000000004,-0.005,-0.007
1670264264.639968,-9.439,-0.843,4.343,0.125,0.7594000000000001,0.1685,0.026000000000000002,-0.013000000000000001,-0.009000000000000001
1670264264.679968,-9.432,-0.8310000000000001,4.245,0.1259,0.7589,0.16590000000000002,0.019,-0.024,-0.011
1670264264.719968,-9.388,-0.873,4.248,0.1202,0.7569,0.16720000000000002,0.02,-0.029,-0.014
1670264264.759968,-9.404,-0.8150000000000001,4.235,0.12300000000000001,0.7587,0.166,0.013000000000000001,-0.006,-0.007
1670264264.799968,-9.476,-0.87,4.266,0.1211,0.7564000000000001,0.1754,0.018000000000000002,0.0,0.001
1670264264.839968,-9.412,-0.838,4.305,0.1237,0.7553000000000001,0.16620000000000001,0.01,-0.011,0.004
1670264264.879968,-9.428,-0.8240000000000001,4.272,0.12510000000000002,0.7574000000000001,0.16690000000000002,0.014,-0.016,0.0
1670264264.919968,-9.397,-0.797,4.281,0.1245,0.7552,0.16840000000000002,0.041,-0.013000000000000001,-0.01
1670264264.9599679,-9.462,-0.8140000000000001,4.296,0.12480000000000001,0.7562,0.1698,0.023,-0.023,-0.019
1670264264.999968,-9.417,-0.8180000000000001,4.298,0.1252,0.7563000000000001,0.1731,0.01,-0.033,-0.006
1670264265.039968,-9.375,-0.836,4.33,0.12240000000000001,0.7569,0.1559,0.017,-0.026000000000000002,-0.019
1670264265.079967,-9.433,-0.875,4.215,0.12380000000000001,0.7572,0.1673,0.009000000000000001,-0.018000000000000002,-0.012
1670264265.119967,-9.447000000000001,-0.8320000000000001,4.256,0.1237,0.7592,0.168,0.004,-0.014,-0.006
1670264265.159967,-9.466000000000001,-0.791,4.276,0.12390000000000001,0.7587,0.16740000000000002,0.017,-0.012,-0.001
1670264265.199967,-9.42,-0.842,4.311,0.1275,0.7565000000000001,0.1671,0.034,-0.014,-0.008
1670264265.239967,-9.408,-0.8230000000000001,4.338,0.1221,0.7569,0.1701,0.03,-0.018000000000000002,-0.006
1670264265.279967,-9.415000000000001,-0.836,4.32,0.12190000000000001,0.756,0.1661,0.006,-0.016,-0.004
1670264265.319967,-9.414,-0.8240000000000001,4.283,0.1246,0.757,0.1665,0.008,-0.018000000000000002,-0.016
1670264265.359967,-9.485,-0.849,4.242,0.12440000000000001,0.7592,0.166,0.001,-0.016,-0.009000000000000001
1670264265.399967,-9.387,-0.8310000000000001,4.267,0.1233,0.7556,0.1675,0.006,-0.017,-0.009000000000000001
1670264265.439967,-9.455,-0.848,4.2,0.12240000000000001,0.7591,0.167,0.016,-0.023,-0.014
1670264265.479967,-9.402000000000001,-0.844,4.333,0.1236,0.7588,0.1668,0.009000000000000001,-0.018000000000000002,-0.01
1670264265.519967,-9.39,-0.835,4.351,0.1257,0.7558,0.1658,0.016,-0.022,-0.007
1670264265.559967,-9.421,-0.8260000000000001,4.267,0.1231,0.7566,0.1668,0.018000000000000002,-0.025,-0.013000000000000001
1670264265.599967,-9.437,-0.855,4.1850000000000005,0.12290000000000001,0.7578,0.1676,0.03,-0.018000000000000002,-0.017
1670264265.639967,-9.411,-0.871,4.219,0.1241,0.7577,0.168,0.015,-0.018000000000000002,-0.005
1670264265.679967,-9.431000000000001,-0.804,4.298,0.1216,0.7555000000000001,0.1685,0.028,-0.017,-0.01
1670264265.719967,-9.448,-0.902,4.211,0.1236,0.756,0.1676,0.012,-0.016,-0.013000000000000001
1670264265.7599669,-9.433,-0.8160000000000001,4.322,0.12610000000000002,0.7585000000000001,0.1695,0.017,-0.021,0.005
1670264265.799967,-9.5,-0.778,4.337,0.12250000000000001,0.7571,0.1698,0.053,0.01,0.0
1670264265.839967,-9.455,-0.73,4.4190000000000005,0.12430000000000001,0.7588,0.166,0.181,0.095,-0.006
1670264265.879967,-9.403,-0.8230000000000001,4.214,0.1274,0.7542,0.16840000000000002,0.21,0.08,0.01
1670264265.919967,-9.479000000000001,-0.773,4.173,0.1252,0.7534000000000001,0.1704,0.164,0.047,0.004
1670264265.959967,-9.47,-0.769,4.21,0.1268,0.7516,0.16820000000000002,0.079,-0.003,-0.014
1670264265.9999669,-9.5,-0.774,4.276,0.1277,0.7546,0.17070000000000002,0.023,-0.016,-0.015
1670264266.039967,-9.356,-0.67,4.279,0.125,0.7524000000000001,0.1691,0.013000000000000001,-0.045,-0.019
1670264266.079967,-9.365,-0.788,4.194,0.1258,0.7544000000000001,0.1704,-0.026000000000000002,-0.066,-0.034
1670264266.119967,-9.238,-0.854,4.093,0.1275,0.7564000000000001,0.1705,-0.23,-0.199,-0.048
1670264266.159967,-9.641,-0.759,4.378,0.12480000000000001,0.7553000000000001,0.1703,-0.124,-0.069,-0.034
1670264266.199966,-9.424,-0.72,4.359,0.12290000000000001,0.7544000000000001,0.1711,-0.07100000000000001,-0.027,-0.013000000000000001
1670264266.239966,-9.381,-0.8140000000000001,4.336,0.1237,0.7568,0.1738,-0.007,-0.04,-0.004
1670264266.279966,-9.427,-0.732,4.355,0.1231,0.756,0.169,0.028,-0.027,-0.018000000000000002
1670264266.319966,-9.357,-0.889,4.393,0.12190000000000001,0.7558,0.1705,0.031,-0.024,-0.015
1670264266.359966,-9.384,-0.841,4.329,0.1194,0.7563000000000001,0.1721,-0.002,-0.023,-0.009000000000000001
1670264266.399966,-9.437,-0.8320000000000001,4.343,0.12380000000000001,0.7564000000000001,0.16870000000000002,0.003,-0.02,-0.013000000000000001
1670264266.439966,-9.4,-0.794,4.319,0.12610000000000002,0.7549,0.1675,0.017,-0.007,-0.011
1670264266.479966,-9.41,-0.874,4.269,0.115,0.7562,0.16820000000000002,0.014,-0.005,-0.008
1670264266.519966,-9.387,-0.875,4.276,0.1227,0.7588,0.1686,0.012,-0.012,0.0
1670264266.5599658,-9.405,-0.8220000000000001,4.352,0.11800000000000001,0.7581,0.1748,0.026000000000000002,-0.017,-0.01
1670264266.599966,-9.397,-0.845,4.28,0.1228,0.7556,0.1713,0.029,-0.013000000000000001,-0.01
1670264266.639966,-9.411,-0.833,4.32,0.1232,0.756,0.16790000000000002,0.023,-0.017,-0.011
1670264266.679966,-9.402000000000001,-0.862,4.306,0.1233,0.7589,0.16840000000000002,0.027,-0.017,-0.012
1670264266.719966,-9.397,-0.843,4.347,0.12140000000000001,0.7571,0.1713,0.017,-0.021,-0.005
1670264266.759966,-9.427,-0.8270000000000001,4.28,0.1197,0.7566,0.1771,0.027,-0.009000000000000001,-0.009000000000000001
1670264266.7999659,-9.432,-0.8290000000000001,4.276,0.1163,0.7555000000000001,0.1804,0.031,-0.009000000000000001,-0.006
1670264266.839966,-9.385,-0.851,4.317,0.1216,0.7549,0.1867,0.02,-0.009000000000000001,0.001
1670264266.879966,-9.419,-0.851,4.202,0.1216,0.7591,0.19140000000000001,0.016,-0.012,-0.009000000000000001
1670264266.919966,-9.438,-0.806,4.3020000000000005,0.12380000000000001,0.7572,0.17170000000000002,0.025,-0.012,-0.006
1670264266.959966,-9.401,-0.876,4.233,0.1242,0.7557,0.1698,0.008,-0.017,-0.005
1670264266.999966,-9.429,-0.796,4.3020000000000005,0.12380000000000001,0.7573000000000001,0.1685,0.015,-0.018000000000000002,-0.004
1670264267.0399659,-9.397,-0.808,4.366,0.1206,0.7567,0.17020000000000002,0.023,-0.021,-0.018000000000000002
1670264267.079966,-9.444,-0.898,4.361,0.1227,0.759,0.1713,0.016,-0.018000000000000002,-0.019
1670264267.119966,-9.472,-0.8250000000000001,4.313,0.12340000000000001,0.756,0.1693,0.016,-0.022,-0.006
1670264267.159966,-9.397,-0.785,4.36,0.12140000000000001,0.7551,0.16690000000000002,0.023,-0.012,0.006
1670264267.199966,-9.403,-0.885,4.333,0.12140000000000001,0.7564000000000001,0.1705,0.023,0.003,-0.005
1670264267.239965,-9.349,-0.8210000000000001,4.381,0.12240000000000001,0.7583000000000001,0.169,0.021,-0.004,0.003
1670264267.279965,-9.399000000000001,-0.8170000000000001,4.317,0.11810000000000001,0.7542,0.1698,0.011,-0.015,-0.003
1670264267.319965,-9.434000000000001,-0.803,4.276,0.12200000000000001,0.7601,0.17070000000000002,0.021,-0.001,-0.017
1670264267.3599648,-9.433,-0.863,4.263,0.12490000000000001,0.7573000000000001,0.1729,0.016,-0.013000000000000001,-0.005
1670264267.399965,-9.433,-0.779,4.355,0.1217,0.7575000000000001,0.16740000000000002,0.018000000000000002,-0.014,-0.01
1670264267.439965,-9.355,-0.843,4.304,0.1241,0.7584000000000001,0.1665,0.027,-0.022,-0.014
1670264267.479965,-9.38,-0.852,4.303,0.12100000000000001,0.7556,0.1699,0.011,-0.014,-0.001
1670264267.519965,-9.469,-0.8230000000000001,4.317,0.12200000000000001,0.7571,0.1661,0.006,0.003,0.003
1670264267.559965,-9.378,-0.812,4.393,0.125,0.7572,0.1695,0.017,0.004,0.001
1670264267.5999649,-9.43,-0.8140000000000001,4.276,0.1216,0.7574000000000001,0.16770000000000002,0.011,-0.003,0.002
1670264267.639965,-9.502,-0.777,4.274,0.1242,0.7575000000000001,0.1676,0.02,-0.003,-0.006
1670264267.679965,-9.44,-0.8140000000000001,4.263,0.1254,0.756,0.1675,0.037,-0.005,-0.009000000000000001
1670264267.719965,-9.389,-0.841,4.329,0.1232,0.7555000000000001,0.166,0.021,-0.004,-0.009000000000000001
1670264267.759965,-9.411,-0.835,4.253,0.1228,0.7592,0.1671,0.012,-0.019,-0.006
1670264267.799965,-9.448,-0.839,4.263,0.12380000000000001,0.7559,0.16820000000000002,0.017,-0.01,-0.01
1670264267.8399649,-9.413,-0.838,4.25,0.1228,0.7568,0.1698,0.005,-0.009000000000000001,-0.003
1670264267.879965,-9.397,-0.853,4.207,0.12350000000000001,0.758,0.1691,0.008,-0.021,-0.001
1670264267.919965,-9.402000000000001,-0.776,4.354,0.12430000000000001,0.7543000000000001,0.1689,0.02,-0.016,-0.004
1670264267.959965,-9.376,-0.8230000000000001,4.3100000000000005,0.1211,0.758,0.1691,0.039,-0.014,-0.003
1670264267.999965,-9.418000000000001,-0.838,4.257,0.12560000000000002,0.7584000000000001,0.1668,0.014,-0.013000000000000001,-0.009000000000000001
1670264268.039965,-9.403,-0.851,4.2860000000000005,0.1255,0.7579,0.16820000000000002,0.01,-0.01,0.0
1670264268.0799649,-9.447000000000001,-0.799,4.26,0.1232,0.7574000000000001,0.1688,0.008,-0.008,-0.003
1670264268.119965,-9.408,-0.861,4.229,0.1236,0.7588,0.16820000000000002,0.021,-0.01,0.004
1670264268.159965,-9.399000000000001,-0.851,4.293,0.1213,0.7579,0.1698,0.003,-0.01,0.001
1670264268.199965,-9.352,-0.773,4.358,0.12440000000000001,0.7543000000000001,0.16690000000000002,0.02,-0.01,-0.005
1670264268.239965,-9.427,-0.799,4.309,0.11760000000000001,0.753,0.17600000000000002,0.034,-0.016,-0.014
1670264268.279964,-9.419,-0.81,4.291,0.12300000000000001,0.7547,0.1688,0.027,-0.01,-0.009000000000000001
1670264268.319964,-9.421,-0.845,4.263,0.12290000000000001,0.7558,0.1688,0.011,-0.013000000000000001,-0.002
1670264268.359964,-9.47,-0.8230000000000001,4.22,0.1242,0.7555000000000001,0.1668,0.007,-0.02,0.002
1670264268.3999639,-9.427,-0.79,4.2700000000000005,0.1226,0.7567,0.17120000000000002,0.011,-0.02,-0.016
1670264268.439964,-9.382,-0.796,4.329,0.1223,0.7562,0.16540000000000002,0.021,-0.027,-0.017
1670264268.479964,-9.417,-0.862,4.247,0.1183,0.7557,0.1693,0.022,-0.023,-0.01
1670264268.519964,-9.377,-0.846,4.252,0.125,0.7555000000000001,0.1703,0.007,-0.015,-0.015
1670264268.559964,-9.319,-0.8140000000000001,4.33,0.12050000000000001,0.7544000000000001,0.1749,0.011,-0.011,-0.001
1670264268.599964,-9.496,-0.81,4.266,0.1227,0.757,0.15910000000000002,0.015,0.013000000000000001,0.003
1670264268.6399639,-9.540000000000001,-0.997,4.401,0.12150000000000001,0.7563000000000001,0.21480000000000002,-0.17400000000000002,0.091,0.007
1670264268.679964,-9.393,-0.685,4.196,0.1246,0.7582,0.1376,-0.203,0.065,0.016
1670264268.719964,-9.525,-0.794,4.083,0.1254,0.7597,0.17200000000000001,-0.12,0.029,0.0
1670264268.759964,-9.448,-0.882,4.119,0.117,0.756,0.1705,-0.054,0.017,-0.027
1670264268.799964,-9.406,-0.924,4.163,0.12510000000000002,0.7637,0.159,-0.056,-0.007,-0.017
1670264268.839964,-9.542,-0.981,4.135,0.12350000000000001,0.758,0.1578,-0.047,-0.037,-0.021
1670264268.8799639,-9.363,-0.841,4.199,0.12510000000000002,0.7621,0.1585,-0.015,-0.023,-0.027
1670264268.919964,-9.339,-0.728,4.073,0.12480000000000001,0.7593000000000001,0.1632,0.079,-0.089,-0.043000000000000003
1670264268.959964,-9.566,-1.034,4.117,0.12190000000000001,0.7605000000000001,0.16190000000000002,0.197,-0.108,-0.051000000000000004
1670264268.999964,-9.386000000000001,-0.9450000000000001,4.23,0.1184,0.7602,0.1668,0.151,-0.06,-0.002
1670264269.039964,-9.357,-0.839,4.384,0.1221,0.7571,0.16770000000000002,0.14300000000000002,-0.031,-0.005
1670264269.079964,-9.494,-0.9490000000000001,4.285,0.11960000000000001,0.7602,0.16720000000000002,0.162,-0.042,-0.027
1670264269.119964,-9.414,-1.018,4.214,0.12380000000000001,0.7588,0.16820000000000002,0.079,-0.025,-0.004
1670264269.159964,-9.418000000000001,-0.836,4.341,0.1217,0.7572,0.16790000000000002,0.029,-0.034,-0.012
1670264269.199964,-9.446,-0.852,4.333,0.12240000000000001,0.7561,0.1689,0.04,-0.021,-0.015
1670264269.239964,-9.352,-0.89,4.319,0.12430000000000001,0.7574000000000001,0.16820000000000002,0.036000000000000004,-0.018000000000000002,-0.02
1670264269.279964,-9.412,-0.897,4.325,0.12240000000000001,0.758,0.16670000000000001,0.021,-0.02,-0.002
1670264269.319963,-9.391,-0.838,4.309,0.1203,0.7585000000000001,0.1683,0.023,-0.013000000000000001,0.003
1670264269.359963,-9.417,-0.808,4.246,0.1227,0.7594000000000001,0.16690000000000002,0.043000000000000003,-0.018000000000000002,-0.006
1670264269.399963,-9.397,-0.8300000000000001,4.227,0.12150000000000001,0.7574000000000001,0.1685,0.038,-0.018000000000000002,-0.011
1670264269.4399629,-9.42,-0.871,4.333,0.1232,0.7584000000000001,0.1709,0.028,-0.02,-0.008
1670264269.479963,-9.424,-0.8210000000000001,4.269,0.12380000000000001,0.7573000000000001,0.1703,0.018000000000000002,-0.026000000000000002,-0.01
1670264269.519963,-9.417,-0.8180000000000001,4.363,0.1226,0.7556,0.1714,0.017,-0.02,-0.009000000000000001
1670264269.559963,-9.416,-0.857,4.3100000000000005,0.12240000000000001,0.7568,0.1668,0.002,-0.016,0.0
1670264269.599963,-9.433,-0.8180000000000001,4.309,0.1232,0.7587,0.1704,0.014,-0.013000000000000001,-0.009000000000000001
1670264269.639963,-9.398,-0.842,4.3260000000000005,0.12140000000000001,0.7582,0.1694,0.02,-0.01,-0.006
1670264269.6799629,-9.405,-0.868,4.3340000000000005,0.12390000000000001,0.7567,0.1706,0.011,-0.016,-0.007
1670264269.719963,-9.414,-0.86,4.2860000000000005,0.12350000000000001,0.7598,0.16870000000000002,0.021,-0.018000000000000002,-0.013000000000000001
1670264269.759963,-9.389,-0.841,4.364,0.12140000000000001,0.7596,0.1685,0.018000000000000002,-0.011,-0.008
1670264269.799963,-9.373,-0.843,4.339,0.12250000000000001,0.7578,0.17070000000000002,0.021,-0.016,-0.003
1670264269.839963,-9.369,-0.856,4.369,0.1222,0.7584000000000001,0.1714,0.011,-0.012,-0.003
1670264269.879963,-9.392,-0.8130000000000001,4.361,0.12240000000000001,0.7605000000000001,0.1693,0.022,-0.017,-0.011
1670264269.919963,-9.404,-0.909,4.2780000000000005,0.1233,0.7582,0.1701,0.018000000000000002,-0.015,-0.011
1670264269.959963,-9.499,-0.811,4.339,0.1221,0.7588,0.1701,0.014,-0.007,0.004
1670264269.999963,-9.424,-0.788,4.362,0.1179,0.7534000000000001,0.17470000000000002,0.035,-0.003,-0.004
1670264270.039963,-9.38,-0.937,4.281,0.1237,0.7593000000000001,0.1699,0.021,-0.001,-0.007
1670264270.079963,-9.32,-0.801,4.33,0.12300000000000001,0.7567,0.1709,0.005,-0.015,0.012
1670264270.119963,-9.439,-0.855,4.327,0.12380000000000001,0.7564000000000001,0.1704,0.029,-0.014,-0.003
1670264270.159963,-9.47,-0.8,4.275,0.1252,0.7577,0.1668,0.027,-0.007,-0.009000000000000001
1670264270.199963,-9.369,-0.873,4.378,0.12090000000000001,0.7588,0.17,0.014,-0.019,-0.002
1670264270.239963,-9.389,-0.807,4.3420000000000005,0.11620000000000001,0.7537,0.1784,0.022,-0.023,-0.018000000000000002
1670264270.279963,-9.381,-0.835,4.39,0.1232,0.7577,0.1678,0.012,-0.021,-0.016
1670264270.319963,-9.399000000000001,-0.807,4.287,0.12200000000000001,0.7549,0.17170000000000002,0.0,-0.007,0.0
1670264270.359962,-9.439,-0.875,4.279,0.12340000000000001,0.7592,0.1666,0.01,0.0,0.0
1670264270.399962,-9.368,-0.8290000000000001,4.335,0.12440000000000001,0.7569,0.1703,0.009000000000000001,-0.007,-0.001
1670264270.439962,-9.358,-0.873,4.276,0.1207,0.7565000000000001,0.1621,0.01,-0.011,0.002
1670264270.4799619,-9.452,-0.78,4.26,0.1222,0.7564000000000001,0.1746,0.032,-0.014,-0.007
1670264270.519962,-9.414,-0.81,4.238,0.12250000000000001,0.7516,0.1645,0.022,-0.02,-0.017
1670264270.559962,-9.36,-0.857,4.357,0.1233,0.7547,0.17880000000000001,0.006,-0.022,-0.005
1670264270.599962,-9.412,-0.788,4.378,0.1263,0.7551,0.1812,0.017,-0.012,-0.012
1670264270.639962,-9.401,-0.877,4.296,0.1236,0.7579,0.169,0.023,-0.007,-0.009000000000000001
1670264270.679962,-9.405,-0.841,4.264,0.1255,0.7562,0.16870000000000002,0.019,-0.012,0.006
1670264270.719962,-9.428,-0.8240000000000001,4.267,0.12240000000000001,0.759,0.1686,0.021,-0.013000000000000001,-0.004
1670264270.759962,-9.375,-0.8200000000000001,4.297,0.1223,0.7583000000000001,0.16870000000000002,0.019,-0.012,-0.01
1670264270.799962,-9.443,-0.8280000000000001,4.298,0.12440000000000001,0.7574000000000001,0.1698,0.021,-0.012,-0.007
1670264270.839962,-9.357,-0.854,4.293,0.1227,0.7559,0.1738,0.015,-0.012,-0.009000000000000001
1670264270.879962,-9.424,-0.8210000000000001,4.311,0.12380000000000001,0.7556,0.1683,0.008,-0.012,-0.009000000000000001
1670264270.919962,-9.398,-0.869,4.282,0.1227,0.7582,0.1713,0.001,-0.005,-0.005
1670264270.959962,-9.394,-0.8210000000000001,4.29,0.12200000000000001,0.7572,0.1694,-0.003,-0.014,0.001
1670264270.999962,-9.4,-0.8290000000000001,4.261,0.1211,0.7567,0.171,0.028,-0.012,-0.013000000000000001
1670264271.039962,-9.398,-0.882,4.284,0.1202,0.7542,0.169,0.012,-0.01,-0.004
1670264271.079962,-9.384,-0.811,4.373,0.1199,0.7559,0.16920000000000002,0.016,-0.01,0.0
1670264271.119962,-9.441,-0.8210000000000001,4.3340000000000005,0.1223,0.7569,0.1676,0.025,-0.011,-0.006
1670264271.159962,-9.399000000000001,-0.861,4.276,0.1233,0.7553000000000001,0.16870000000000002,0.02,-0.015,-0.001
1670264271.199962,-9.387,-0.841,4.351,0.12430000000000001,0.7575000000000001,0.168,0.015,-0.006,-0.002
1670264271.239962,-9.35,-0.846,4.34,0.12340000000000001,0.7564000000000001,0.1668,0.018000000000000002,-0.012,-0.006
1670264271.279962,-9.369,-0.788,4.351,0.12430000000000001,0.7556,0.17020000000000002,0.029,-0.016,-0.01
1670264271.319962,-9.476,-0.836,4.297,0.1208,0.7589,0.1676,0.07200000000000001,0.036000000000000004,-0.002
1670264271.359962,-9.479000000000001,-0.675,4.476,0.1241,0.7539,0.16770000000000002,0.187,0.10200000000000001,0.02
1670264271.399961,-9.365,-0.77,4.232,0.1254,0.755,0.1695,0.263,0.128,0.016
1670264271.439961,-9.405,-0.913,4.079,0.1269,0.7549,0.1691,0.131,0.041,-0.003
1670264271.479961,-9.423,-0.632,4.173,0.12760000000000002,0.7542,0.1694,0.032,-0.002,0.009000000000000001
1670264271.5199609,-9.451,-0.6930000000000001,4.1450000000000005,0.1259,0.7508,0.17120000000000002,0.026000000000000002,-0.023,-0.009000000000000001
1670264271.559961,-9.484,-0.683,4.225,0.1252,0.7516,0.1699,0.032,-0.027,-0.024
1670264271.599961,-9.487,-0.6880000000000001,4.2090000000000005,0.1236,0.7506,0.1698,0.017,-0.031,-0.024
1670264271.639961,-9.428,-0.803,4.127,0.12430000000000001,0.7534000000000001,0.1694,-0.088,-0.1,-0.043000000000000003
1670264271.679961,-9.331,-0.914,4.09,0.12380000000000001,0.7528,0.1681,-0.247,-0.223,-0.027
1670264271.719961,-9.598,-0.545,4.37,0.12440000000000001,0.7535000000000001,0.1701,-0.096,-0.058,-0.035
1670264271.759961,-9.323,-0.864,4.362,0.1216,0.7567,0.1695,-0.007,-0.028,-0.015
1670264271.799961,-9.450000000000001,-0.863,4.3180000000000005,0.1228,0.7543000000000001,0.1698,-0.021,-0.022,0.006
1670264271.839961,-9.39,-0.747,4.3020000000000005,0.1231,0.7574000000000001,0.1693,0.002,-0.012,-0.001
1670264271.799961,-9.416,-0.776,4.337,0.12090000000000001,0.7568,0.1723,0.037,-0.021,-0.025
1670264271.839961,-9.41,-0.8320000000000001,4.327,0.12050000000000001,0.754,0.17070000000000002,0.022,-0.03,-0.016
1670264271.879961,-9.402000000000001,-0.851,4.353,0.12140000000000001,0.7568,0.17200000000000001,0.007,-0.032,-0.013000000000000001
1670264271.919961,-9.381,-0.806,4.408,0.1114,0.7534000000000001,0.17950000000000002,0.015,-0.014,-0.021
1670264271.959961,-9.372,-0.8290000000000001,4.393,0.1208,0.7544000000000001,0.1708,0.016,-0.011,-0.003
1670264271.999961,-9.404,-0.842,4.258,0.1221,0.7557,0.1666,0.023,-0.011,-0.006
1670264272.039961,-9.395,-0.847,4.3,0.1213,0.7569,0.169,0.021,-0.014,-0.003
1670264272.079961,-9.426,-0.8280000000000001,4.321,0.1222,0.7569,0.1705,0.017,-0.012,-0.001
1670264272.119961,-9.383000000000001,-0.8200000000000001,4.2780000000000005,0.12050000000000001,0.7579,0.1711,0.028,-0.019,-0.016
1670264272.159961,-9.415000000000001,-0.812,4.32,0.1081,0.7513000000000001,0.17950000000000002,0.033,-0.014,-0.011
1670264272.199961,-9.378,-0.857,4.3180000000000005,0.12250000000000001,0.7572,0.1693,0.014,-0.021,-0.009000000000000001
1670264272.239961,-9.364,-0.847,4.363,0.1202,0.7547,0.1729,0.016,-0.01,-0.004
1670264272.279961,-9.4,-0.809,4.333,0.1206,0.7563000000000001,0.1626,0.018000000000000002,-0.006,-0.004
1670264272.319961,-9.42,-0.803,4.315,0.12010000000000001,0.7538,0.1764,0.024,-0.014,-0.004
1670264272.359961,-9.412,-0.838,4.299,0.12100000000000001,0.7555000000000001,0.1489,0.025,-0.016,-0.006
1670264272.399961,-9.405,-0.807,4.3100000000000005,0.1233,0.7564000000000001,0.16920000000000002,0.023,-0.016,-0.006
1670264272.43996,-9.436,-0.8160000000000001,4.256,0.11080000000000001,0.7546,0.1784,0.031,-0.016,-0.012
1670264272.47996,-9.348,-0.8240000000000001,4.307,0.1202,0.7558,0.1709,0.027,-0.012,-0.01
1670264272.51996,-9.378,-0.843,4.297,0.1188,0.755,0.17270000000000002,0.013000000000000001,-0.023,-0.01
1670264272.55996,-9.373,-0.886,4.346,0.11860000000000001,0.7553000000000001,0.1699,0.001,-0.017,-0.012
1670264272.59996,-9.46,-0.778,4.381,0.12040000000000001,0.7573000000000001,0.1665,0.014,-0.019,-0.01
1670264272.63996,-9.461,-0.727,4.343,0.1226,0.7575000000000001,0.1713,0.04,-0.012,0.0
1670264272.67996,-9.39,-0.933,4.309,0.1232,0.7555000000000001,0.16840000000000002,0.019,-0.009000000000000001,-0.019
1670264272.71996,-9.352,-0.775,4.348,0.1213,0.7571,0.1683,0.011,-0.019,0.002
1670264272.75996,-9.349,-0.845,4.323,0.1211,0.7576,0.1704,0.009000000000000001,-0.02,-0.006
1670264272.79996,-9.432,-0.778,4.3950000000000005,0.12250000000000001,0.7558,0.1713,0.019,-0.013000000000000001,-0.015
1670264272.83996,-9.405,-0.854,4.3180000000000005,0.12200000000000001,0.7567,0.16820000000000002,0.021,-0.012,-0.005
1670264272.87996,-9.387,-0.804,4.2940000000000005,0.12100000000000001,0.7555000000000001,0.17200000000000001,0.022,-0.005,-0.002
1670264272.91996,-9.379,-0.855,4.308,0.1208,0.7536,0.1691,0.014,-0.016,-0.012
1670264272.95996,-9.450000000000001,-0.781,4.288,0.1222,0.7559,0.17020000000000002,0.012,0.001,0.0
1670264272.99996,-9.412,-0.842,4.328,0.1233,0.756,0.1689,0.01,0.011,-0.005
1670264273.03996,-9.414,-0.8230000000000001,4.309,0.1236,0.755,0.1698,0.005,-0.005,-0.001
1670264273.07996,-9.403,-0.803,4.2540000000000004,0.12240000000000001,0.7552,0.1705,0.005,-0.009000000000000001,0.008
1670264273.11996,-9.388,-0.756,4.343,0.12350000000000001,0.7558,0.1688,0.026000000000000002,-0.016,-0.006
1670264273.15996,-9.429,-0.802,4.2780000000000005,0.1211,0.7564000000000001,0.169,0.022,-0.021,-0.012
1670264273.19996,-9.366,-0.835,4.3020000000000005,0.1236,0.7571,0.1706,0.016,-0.023,-0.007
1670264273.23996,-9.405,-0.839,4.305,0.1217,0.7576,0.1694,0.011,-0.018000000000000002,-0.014
1670264273.27996,-9.381,-0.844,4.265,0.1232,0.7545000000000001,0.1696,0.01,-0.016,0.0
1670264273.31996,-9.425,-0.8300000000000001,4.3420000000000005,0.12250000000000001,0.7552,0.1691,0.016,-0.012,0.0
1670264273.35996,-9.428,-0.8,4.331,0.1217,0.7559,0.16870000000000002,0.015,-0.007,-0.003
1670264273.39996,-9.389,-0.796,4.355,0.12000000000000001,0.7556,0.1709,0.023,-0.016,-0.004
1670264273.43996,-9.372,-0.806,4.343,0.1194,0.752,0.17800000000000002,0.022,-0.011,-0.004
1670264273.479959,-9.441,-0.798,4.285,0.11900000000000001,0.7545000000000001,0.1689,0.016,-0.007,-0.009000000000000001
1670264273.519959,-9.458,-0.805,4.276,0.12350000000000001,0.756,0.1681,-0.005,0.0,-0.002
1670264273.559959,-9.391,-0.796,4.2700000000000005,0.12510000000000002,0.7582,0.1696,0.006,-0.005,0.003
1670264273.599959,-9.448,-0.782,4.316,0.12100000000000001,0.7549,0.1694,0.027,-0.011,-0.009000000000000001
1670264273.639959,-9.433,-0.842,4.249,0.12300000000000001,0.7577,0.16920000000000002,0.016,-0.004,-0.002
1670264273.679959,-9.38,-0.8270000000000001,4.243,0.11120000000000001,0.751,0.1726,0.013000000000000001,-0.015,-0.009000000000000001
1670264273.719959,-9.478,-0.805,4.251,0.1159,0.7582,0.1668,0.025,-0.018000000000000002,-0.013000000000000001
1670264273.759959,-9.434000000000001,-0.798,4.344,0.12300000000000001,0.7549,0.1685,0.022,-0.015,-0.012
1670264273.799959,-9.408,-0.836,4.2860000000000005,0.12240000000000001,0.7569,0.16840000000000002,0.015,-0.009000000000000001,-0.001
1670264273.839959,-9.402000000000001,-0.812,4.312,0.1245,0.7541,0.16840000000000002,0.014,-0.014,-0.003
1670264273.879959,-9.449,-0.807,4.3420000000000005,0.12440000000000001,0.7553000000000001,0.16790000000000002,0.027,-0.012,-0.009000000000000001
1670264273.919959,-9.472,-0.836,4.298,0.1173,0.7565000000000001,0.17020000000000002,0.005,0.0,-0.001
1670264273.959959,-9.43,-0.786,4.3020000000000005,0.1254,0.7557,0.168,-0.02,0.027,0.01
1670264273.999959,-9.540000000000001,-1.0110000000000001,4.333,0.12350000000000001,0.7558,0.1688,-0.11900000000000001,0.096,0.008
1670264274.039959,-9.448,-0.935,4.287,0.1255,0.7586,0.1661,-0.242,0.125,0.029
1670264274.079959,-9.274000000000001,-0.764,4.015,0.1255,0.7566,0.1517,-0.147,0.031,0.014
1670264274.119959,-9.485,-0.753,4.075,0.12390000000000001,0.7583000000000001,0.1422,-0.075,-0.003,-0.007
1670264274.159959,-9.58,-0.893,4.064,0.1228,0.7602,0.1746,-0.036000000000000004,0.0,-0.02
1670264274.199959,-9.481,-0.862,4.051,0.117,0.7603000000000001,0.1461,-0.038,-0.025,-0.009000000000000001
1670264274.239959,-9.557,-0.973,4.155,0.12430000000000001,0.7602,0.15940000000000001,0.026000000000000002,-0.064,-0.028
1670264274.279959,-9.172,-0.545,4.109,0.1268,0.7609,0.1617,0.157,-0.08700000000000001,-0.037
1670264274.319959,-9.657,-1.098,4.227,0.12480000000000001,0.7613000000000001,0.1635,0.231,-0.116,-0.058
1670264274.359959,-9.451,-0.9400000000000001,4.226,0.12380000000000001,0.7583000000000001,0.1666,0.159,-0.036000000000000004,-0.003
1670264274.3999588,-9.393,-0.908,4.32,0.1264,0.7579,0.16620000000000001,0.089,-0.017,0.0
1670264274.439959,-9.464,-0.839,4.231,0.1255,0.7603000000000001,0.16790000000000002,0.09,-0.02,-0.002
1670264274.479959,-9.464,-0.87,4.313,0.1222,0.7556,0.1671,0.06,-0.013000000000000001,-0.003
1670264274.519958,-9.424,-0.87,4.258,0.12440000000000001,0.7594000000000001,0.1676,0.034,-0.03,-0.013000000000000001
1670264274.559958,-9.409,-0.857,4.323,0.12480000000000001,0.758,0.1681,0.028,-0.034,-0.015
1670264274.599958,-9.446,-0.833,4.2090000000000005,0.1217,0.7557,0.1655,0.024,-0.031,-0.024
1670264274.639958,-9.4,-0.868,4.272,0.1227,0.7559,0.16720000000000002,0.022,-0.017,-0.005
1670264274.679958,-9.35,-0.8150000000000001,4.313,0.12190000000000001,0.7561,0.1673,0.025,-0.021,-0.003
1670264274.719958,-9.414,-0.803,4.307,0.1207,0.7569,0.1694,0.032,-0.02,-0.012
1670264274.759958,-9.406,-0.85,4.261,0.1221,0.7563000000000001,0.1688,0.037,-0.021,-0.007
1670264274.799958,-9.450000000000001,-0.8180000000000001,4.299,0.1233,0.7539,0.16870000000000002,0.028,-0.023,-0.012
1670264274.839958,-9.379,-0.8270000000000001,4.314,0.12100000000000001,0.7563000000000001,0.1704,0.021,-0.025,-0.02
1670264274.879958,-9.417,-0.852,4.237,0.11960000000000001,0.7553000000000001,0.16740000000000002,0.01,-0.019,-0.009000000000000001
1670264274.919958,-9.428,-0.805,4.3500000000000005,0.12190000000000001,0.7578,0.1695,0.015,-0.01,-0.007
1670264274.959958,-9.429,-0.809,4.329,0.1168,0.7557,0.1701,0.02,-0.018000000000000002,-0.022
1670264274.999958,-9.423,-0.841,4.218,0.12380000000000001,0.7591,0.1705,0.024,-0.021,-0.014
1670264275.039958,-9.411,-0.844,4.2700000000000005,0.12490000000000001,0.7562,0.1705,0.018000000000000002,-0.022,-0.014
1670264275.079958,-9.4,-0.842,4.32,0.1203,0.7574000000000001,0.1696,0.021,-0.014,-0.007
1670264275.119958,-9.378,-0.845,4.2780000000000005,0.1217,0.7552,0.169,0.024,-0.015,-0.009000000000000001
1670264275.159958,-9.42,-0.8150000000000001,4.366,0.12390000000000001,0.7569,0.17350000000000002,0.015,-0.021,-0.011
1670264275.1999578,-9.453,-0.891,4.205,0.1217,0.7543000000000001,0.16820000000000002,0.005,-0.011,-0.011
1670264275.239958,-9.479000000000001,-0.8180000000000001,4.314,0.1228,0.7571,0.171,0.003,-0.014,-0.007
1670264275.279958,-9.415000000000001,-0.803,4.314,0.1213,0.755,0.166,0.017,-0.006,0.011
1670264275.319958,-9.411,-0.811,4.23,0.1216,0.7571,0.16870000000000002,0.035,0.004,-0.012
1670264275.359958,-9.378,-0.859,4.167,0.1246,0.7544000000000001,0.1696,0.016,-0.016,-0.007
1670264275.399958,-9.38,-0.897,4.24,0.12610000000000002,0.7575000000000001,0.1695,0.018000000000000002,-0.024,0.0
1670264275.4399579,-9.466000000000001,-0.741,4.319,0.12190000000000001,0.7569,0.168,0.039,-0.017,-0.018000000000000002
1670264275.479958,-9.384,-0.866,4.345,0.1202,0.7576,0.1665,0.026000000000000002,-0.026000000000000002,-0.006
1670264275.519958,-9.389,-0.851,4.309,0.1197,0.756,0.1686,0.024,-0.021,-0.009000000000000001
1670264275.559958,-9.374,-0.85,4.351,0.11960000000000001,0.7569,0.1715,0.016,-0.019,-0.02
1670264275.599958,-9.443,-0.796,4.323,0.1223,0.7571,0.1726,0.011,-0.008,0.002
1670264275.639957,-9.437,-0.842,4.308,0.1233,0.7583000000000001,0.1698,0.022,0.001,-0.01
1670264275.679957,-9.381,-0.836,4.273,0.1211,0.7555000000000001,0.16920000000000002,0.013000000000000001,-0.004,-0.003
1670264275.719957,-9.415000000000001,-0.842,4.255,0.1227,0.7555000000000001,0.1709,0.011,-0.003,0.007
1670264275.759957,-9.396,-0.779,4.285,0.124,0.7552,0.1689,0.033,-0.006,-0.011
1670264275.799957,-9.396,-0.811,4.3340000000000005,0.12200000000000001,0.755,0.16740000000000002,0.024,-0.016,-0.013000000000000001
1670264275.839957,-9.433,-0.864,4.321,0.1217,0.7577,0.16690000000000002,0.009000000000000001,-0.018000000000000002,-0.003
1670264275.879957,-9.424,-0.8300000000000001,4.298,0.12190000000000001,0.7564000000000001,0.166,0.015,-0.022,-0.02
1670264275.919957,-9.391,-0.842,4.289,0.12100000000000001,0.7571,0.19190000000000002,0.011,-0.017,-0.011
1670264275.959957,-9.433,-0.869,4.263,0.12100000000000001,0.7575000000000001,0.13870000000000002,0.006,-0.015,-0.005
1670264275.9999568,-9.445,-0.8200000000000001,4.264,0.1169,0.7569,0.1757,0.007,-0.014,0.002
1670264276.039957,-9.408,-0.796,4.364,0.1228,0.7567,0.187,0.031,-0.016,-0.009000000000000001
1670264276.079957,-9.439,-0.8210000000000001,4.311,0.12340000000000001,0.7577,0.1842,0.042,-0.02,-0.014
1670264276.119957,-9.43,-0.8230000000000001,4.309,0.1223,0.7553000000000001,0.1688,0.021,-0.014,-0.007
1670264276.159957,-9.346,-0.841,4.322,0.12490000000000001,0.7583000000000001,0.1698,-0.003,-0.013000000000000001,0.0
1670264276.199957,-9.424,-0.8210000000000001,4.3,0.1221,0.7567,0.1699,0.021,-0.012,-0.012
1670264276.2399569,-9.398,-0.857,4.337,0.1228,0.7594000000000001,0.17070000000000002,0.023,-0.011,-0.003
1670264276.279957,-9.382,-0.848,4.361,0.12300000000000001,0.7568,0.1688,0.0,-0.006,0.004
1670264276.319957,-9.408,-0.797,4.32,0.12290000000000001,0.7558,0.1681,0.017,-0.004,-0.003
1670264276.359957,-9.417,-0.871,4.242,0.1212,0.7549,0.1699,0.029,-0.007,-0.015
1670264276.399957,-9.401,-0.8310000000000001,4.272,0.1237,0.7564000000000001,0.17020000000000002,0.022,-0.007,0.006
1670264276.439957,-9.418000000000001,-0.785,4.276,0.1228,0.7561,0.1665,0.024,-0.001,0.0
1670264276.4799569,-9.392,-0.853,4.249,0.1242,0.7553000000000001,0.1695,0.025,-0.01,-0.006
1670264276.519957,-9.414,-0.804,4.251,0.1233,0.7572,0.1652,0.008,-0.012,0.003
1670264276.559957,-9.377,-0.842,4.317,0.1226,0.7567,0.17070000000000002,0.006,-0.007,-0.006
1670264276.599957,-9.527000000000001,-0.775,4.248,0.1232,0.7577,0.1691,0.01,0.0,-0.001
1670264276.639957,-9.469,-0.787,4.26,0.1247,0.7559,0.16870000000000002,0.028,-0.006,0.004
1670264276.679956,-9.409,-0.924,4.264,0.12390000000000001,0.7585000000000001,0.1699,0.016,0.001,-0.007
1670264276.719956,-9.351,-0.776,4.263,0.1208,0.7549,0.1709,-0.001,-0.008,0.007
1670264276.759956,-9.465,-0.779,4.227,0.124,0.7563000000000001,0.1652,0.044,-0.007,-0.003
1670264276.7999558,-9.434000000000001,-0.647,4.422,0.12490000000000001,0.7563000000000001,0.1675,0.164,0.079,-0.004
1670264276.839956,-9.554,-0.809,4.241,0.1233,0.7551,0.1699,0.261,0.148,0.021
1670264276.879956,-9.443,-0.782,4.196,0.12440000000000001,0.7527,0.1703,0.155,0.062,0.01
1670264276.919956,-9.469,-0.712,4.1530000000000005,0.1278,0.7535000000000001,0.16740000000000002,0.088,0.016,-0.006
1670264276.959956,-9.483,-0.728,4.154,0.12430000000000001,0.7527,0.16740000000000002,0.036000000000000004,-0.006,-0.001
1670264276.999956,-9.503,-0.6990000000000001,4.105,0.1252,0.751,0.1685,0.031,-0.005,0.0
1670264277.0399559,-9.503,-0.663,4.125,0.1252,0.751,0.17270000000000002,0.006,-0.002,-0.002
1670264277.079956,-9.439,-0.685,4.0360000000000005,0.1252,0.7521,0.1694,-0.019,-0.051000000000000004,-0.023
1670264277.119956,-9.334,-0.8200000000000001,4.017,0.125,0.7534000000000001,0.1713,-0.16,-0.15,-0.041
1670264277.159956,-9.637,-0.765,4.179,0.124,0.757,0.1714,-0.16,-0.11800000000000001,-0.028
1670264277.199956,-9.461,-0.705,4.369,0.1255,0.7556,0.1708,-0.105,-0.058,-0.028
1670264277.239956,-9.44,-0.76,4.384,0.1246,0.7574000000000001,0.16740000000000002,-0.021,-0.03,-0.012
1670264277.2799559,-9.465,-0.859,4.2780000000000005,0.12440000000000001,0.7579,0.169,0.003,-0.007,-0.001
1670264277.319956,-9.416,-0.8150000000000001,4.255,0.1246,0.7586,0.1699,0.008,-0.002,0.007
1670264277.359956,-9.442,-0.799,4.289,0.1227,0.7574000000000001,0.1693,0.018000000000000002,-0.011,-0.004
1670264277.399956,-9.465,-0.757,4.3340000000000005,0.1236,0.7567,0.169,0.024,-0.01,-0.006
1670264277.439956,-9.444,-0.804,4.275,0.1188,0.7549,0.17020000000000002,0.023,-0.007,-0.001
1670264277.479956,-9.401,-0.809,4.341,0.125,0.7569,0.1699,0.021,-0.002,0.0
1670264277.5199559,-9.448,-0.802,4.202,0.12560000000000002,0.755,0.16870000000000002,0.009000000000000001,-0.009000000000000001,-0.003
1670264277.559956,-9.439,-0.781,4.271,0.1213,0.7554000000000001,0.1673,0.014,-0.011,-0.005
1670264277.599956,-9.463000000000001,-0.8180000000000001,4.172,0.11960000000000001,0.7535000000000001,0.1673,0.011,-0.016,-0.008
1670264277.639956,-9.447000000000001,-0.804,4.311,0.12380000000000001,0.7563000000000001,0.1685,0.02,-0.017,-0.014
1670264277.679956,-9.463000000000001,-0.801,4.224,0.1192,0.7536,0.1705,0.018000000000000002,-0.022,-0.007
1670264277.719955,-9.414,-0.851,4.287,0.1232,0.7569,0.1688,0.024,-0.026000000000000002,-0.006
1670264277.759955,-9.438,-0.788,4.251,0.1188,0.7522000000000001,0.17020000000000002,0.024,-0.024,-0.014
