timestamp,acc_x,acc_y,acc_z,magn_x,magn_y,magn_z,gyro_x,gyro_y,gyro_z
1670355136.0,-9.540000000000001,-0.12,4.1850000000000005,-0.6371,-0.3881,0.34890000000000004,0.0,0.018000000000000002,-0.047
1670355136.04,-9.548,-0.126,4.175,-0.6394000000000001,-0.3914,0.3481,-0.003,0.019,-0.051000000000000004
1670355136.08,-9.57,-0.092,4.195,-0.6382,-0.389,0.34550000000000003,0.008,0.015,-0.056
1670355136.12,-9.515,-0.124,4.1850000000000005,-0.6377,-0.3925,0.3497,0.0,0.014,-0.053
1670355136.16,-9.507,-0.14300000000000002,4.157,-0.6393,-0.38880000000000003,0.3471,0.0,0.016,-0.057
1670355136.2,-9.527000000000001,-0.124,4.152,-0.6366,-0.38830000000000003,0.34490000000000004,-0.007,0.02,-0.049
1670355136.24,-9.546,-0.101,4.166,-0.6394000000000001,-0.3889,0.3488,-0.003,0.014,-0.048
1670355136.28,-9.533,-0.129,4.196,-0.6377,-0.3886,0.3481,0.0,0.014,-0.051000000000000004
1670355136.32,-9.522,-0.114,4.163,-0.6391,-0.388,0.3463,0.001,0.015,-0.053
1670355136.36,-9.517,-0.109,4.166,-0.6385000000000001,-0.3879,0.34940000000000004,0.006,0.015,-0.052000000000000005
1670355136.4,-9.543000000000001,-0.117,4.1930000000000005,-0.6369,-0.3904,0.3493,0.005,0.02,-0.053
1670355136.44,-9.538,-0.105,4.211,-0.6382,-0.3879,0.34640000000000004,0.007,0.02,-0.052000000000000005
1670355136.48,-9.525,-0.117,4.164,-0.6371,-0.388,0.3493,0.007,0.018000000000000002,-0.052000000000000005
1670355136.52,-9.524000000000001,-0.192,4.186,-0.6384000000000001,-0.3902,0.3482,-0.001,0.023,-0.052000000000000005
1670355136.559999,-9.557,-0.113,4.202,-0.6393,-0.38920000000000005,0.3467,-0.01,0.018000000000000002,-0.041
1670355136.599999,-9.591000000000001,-0.063,4.205,-0.6388,-0.3902,0.3461,0.001,0.022,-0.048
1670355136.639999,-9.515,-0.156,4.19,-0.6375000000000001,-0.39,0.3468,0.009000000000000001,0.029,-0.055
1670355136.6799989,-9.483,-0.108,4.16,-0.6396000000000001,-0.3874,0.34850000000000003,0.0,0.014,-0.049
1670355136.719999,-9.541,-0.077,4.211,-0.6372,-0.38920000000000005,0.3491,0.003,0.012,-0.046
1670355136.759999,-9.549,-0.108,4.215,-0.6374000000000001,-0.38780000000000003,0.3483,0.011,0.006,-0.059000000000000004
1670355136.799999,-9.567,-0.147,4.227,-0.6381,-0.3891,0.3436,0.011,0.008,-0.062
1670355136.839999,-9.563,-0.177,4.168,-0.6394000000000001,-0.3875,0.34550000000000003,-0.009000000000000001,0.016,-0.046
1670355136.879999,-9.518,-0.043000000000000003,4.211,-0.6384000000000001,-0.38970000000000005,0.3467,-0.007,0.023,-0.047
1670355136.919999,-9.551,-0.114,4.162,-0.6391,-0.39,0.34550000000000003,0.006,0.03,-0.056
1670355136.959999,-9.497,-0.146,4.1690000000000005,-0.641,-0.38920000000000005,0.34600000000000003,0.005,0.026000000000000002,-0.055
1670355136.999999,-9.524000000000001,-0.126,4.1610000000000005,-0.6371,-0.3901,0.3476,-0.007,0.022,-0.04
1670355137.039999,-9.539,-0.088,4.184,-0.6374000000000001,-0.3875,0.34400000000000003,0.0,0.019,-0.046
1670355137.079999,-9.543000000000001,-0.122,4.157,-0.6389,-0.3902,0.3433,0.008,0.02,-0.055
1670355137.119999,-9.529,-0.156,4.191,-0.6391,-0.3889,0.34740000000000004,0.005,0.019,-0.054
1670355137.159999,-9.555,-0.132,4.176,-0.6369,-0.38830000000000003,0.34800000000000003,0.003,0.017,-0.043000000000000003
1670355137.199999,-9.528,-0.11900000000000001,4.221,-0.6509,-0.39280000000000004,0.3557,0.001,0.018000000000000002,-0.042
1670355137.239999,-9.518,-0.128,4.188,-0.6375000000000001,-0.38880000000000003,0.3476,0.012,0.019,-0.053
1670355137.279999,-9.53,-0.146,4.18,-0.6392,-0.3899,0.3457,0.007,0.016,-0.052000000000000005
1670355137.319999,-9.528,-0.10400000000000001,4.189,-0.638,-0.3906,0.34240000000000004,0.004,0.015,-0.04
1670355137.359999,-9.529,-0.11,4.1690000000000005,-0.6394000000000001,-0.39030000000000004,0.3573,0.003,0.02,-0.05
1670355137.399999,-9.529,-0.11,4.191,-0.6394000000000001,-0.39030000000000004,0.3421,0.019,0.019,-0.046
1670355137.439999,-9.547,-0.109,4.191,-0.6411,-0.39030000000000004,0.3421,0.019,0.018000000000000002,-0.056
1670355137.479999,-9.522,-0.111,4.1850000000000005,-0.6373,-0.391,0.3745,0.002,0.026000000000000002,-0.055
1670355137.519999,-9.494,-0.161,4.178,-0.6457,-0.3885,0.3372,-0.006,0.016,-0.045
1670355137.559999,-9.532,-0.124,4.1930000000000005,-0.6479,-0.38920000000000005,0.3774,0.007,0.017,-0.041
1670355137.599998,-9.588000000000001,-0.08,4.175,-0.64,-0.391,0.3341,0.007,0.027,-0.053
1670355137.639998,-9.476,-0.107,4.189,-0.6373,-0.3909,0.34690000000000004,0.005,0.022,-0.052000000000000005
1670355137.679998,-9.505,-0.131,4.151,-0.6355000000000001,-0.3891,0.3504,-0.001,0.017,-0.049
1670355137.719998,-9.546,-0.089,4.184,-0.6369,-0.3875,0.34650000000000003,0.012,0.015,-0.049
1670355137.759998,-9.536,-0.106,4.197,-0.6394000000000001,-0.391,0.3462,0.008,0.02,-0.055
1670355137.799998,-9.497,-0.134,4.179,-0.6375000000000001,-0.38730000000000003,0.3471,0.003,0.015,-0.058
1670355137.839998,-9.491,-0.116,4.179,-0.6379,-0.38830000000000003,0.3468,0.001,0.015,-0.044
1670355137.879998,-9.556000000000001,-0.093,4.178,-0.6411,-0.38870000000000005,0.3463,0.011,0.023,-0.05
1670355137.919998,-9.548,-0.085,4.158,-0.6365000000000001,-0.3886,0.34900000000000003,0.013000000000000001,0.031,-0.059000000000000004
1670355137.959998,-9.505,-0.125,4.208,-0.6377,-0.3885,0.3447,0.002,0.018000000000000002,-0.042
1670355137.999998,-9.51,-0.107,4.19,-0.6385000000000001,-0.3927,0.3483,-0.003,0.015,-0.046
1670355138.039998,-9.563,-0.08,4.162,-0.64,-0.3894,0.3501,0.012,0.012,-0.054
1670355138.079998,-9.539,-0.131,4.187,-0.6374000000000001,-0.3884,0.34650000000000003,0.007,0.014,-0.053
1670355138.119998,-9.518,-0.146,4.147,-0.6405000000000001,-0.3899,0.34640000000000004,-0.007,0.008,-0.049
1670355138.159998,-9.519,-0.12,4.184,-0.6391,-0.38920000000000005,0.34740000000000004,0.0,0.013000000000000001,-0.048
1670355138.199998,-9.527000000000001,-0.092,4.223,-0.6393,-0.3891,0.34740000000000004,0.01,0.013000000000000001,-0.053
1670355138.239998,-9.518,-0.133,4.202,-0.6399,-0.38920000000000005,0.3457,0.014,0.012,-0.054
1670355138.279998,-9.515,-0.146,4.194,-0.6395000000000001,-0.3885,0.3493,0.012,0.011,-0.047
1670355138.319998,-9.548,-0.106,4.175,-0.6375000000000001,-0.38880000000000003,0.3466,0.007,0.01,-0.044
1670355138.359998,-9.553,-0.099,4.187,-0.6394000000000001,-0.3891,0.3452,0.015,0.012,-0.041
1670355138.399998,-9.515,-0.113,4.158,-0.6382,-0.3894,0.3447,0.013000000000000001,0.019,-0.047
1670355138.439998,-9.519,-0.106,4.191,-0.6415000000000001,-0.3922,0.34900000000000003,0.002,0.014,-0.054
1670355138.479998,-9.444,-0.114,4.197,-0.6403,-0.3901,0.3468,-0.007,0.012,-0.049
1670355138.519998,-9.517,-0.081,4.178,-0.6428,-0.39280000000000004,0.3507,0.001,0.011,-0.039
1670355138.559998,-9.540000000000001,-0.138,4.227,-0.6428,-0.3914,0.3488,0.014,0.015,-0.06
1670355138.599998,-9.505,-0.09,4.225,-0.6378,-0.3875,0.34540000000000004,0.004,0.016,-0.06
1670355138.639997,-9.518,-0.153,4.203,-0.6385000000000001,-0.3904,0.34690000000000004,0.007,0.027,-0.046
1670355138.679997,-9.505,-0.101,4.134,-0.6383,-0.3886,0.3487,0.007,0.014,-0.053
1670355138.719997,-9.554,-0.096,4.216,-0.6392,-0.3891,0.3452,0.005,0.002,-0.058
1670355138.759997,-9.495000000000001,-0.198,4.168,-0.6389,-0.38970000000000005,0.34800000000000003,-0.009000000000000001,0.017,-0.045
1670355138.799997,-9.478,-0.081,4.211,-0.6371,-0.3886,0.34740000000000004,-0.009000000000000001,0.01,-0.047
1670355138.839997,-9.518,-0.10400000000000001,4.191,-0.6378,-0.38830000000000003,0.3473,0.013000000000000001,0.018000000000000002,-0.05
1670355138.879997,-9.513,-0.089,4.191,-0.6383,-0.38880000000000003,0.34840000000000004,0.017,0.016,-0.06
1670355138.919997,-9.5,-0.139,4.206,-0.6376000000000001,-0.3889,0.3482,0.008,0.014,-0.049
1670355138.959997,-9.488,-0.105,4.184,-0.6361,-0.3875,0.34650000000000003,-0.004,0.011,-0.044
1670355138.999997,-9.533,-0.08,4.242,-0.6393,-0.3885,0.3462,0.005,0.011,-0.047
1670355139.039997,-9.514,-0.14200000000000002,4.255,-0.6379,-0.39130000000000004,0.3486,0.002,0.011,-0.06
1670355139.079997,-9.496,-0.129,4.187,-0.6385000000000001,-0.3902,0.3478,0.002,0.006,-0.051000000000000004
1670355139.119997,-9.506,-0.10200000000000001,4.205,-0.6393,-0.3899,0.3451,-0.002,0.016,-0.044
1670355139.159997,-9.519,-0.108,4.227,-0.6365000000000001,-0.3889,0.3457,0.01,0.014,-0.048
1670355139.199997,-9.507,-0.123,4.258,-0.6369,-0.3889,0.34650000000000003,0.011,0.018000000000000002,-0.051000000000000004
1670355139.239997,-9.523,-0.135,4.249,-0.6383,-0.3876,0.3468,0.009000000000000001,0.015,-0.049
1670355139.279997,-9.497,-0.10200000000000001,4.266,-0.6382,-0.38880000000000003,0.3456,0.005,0.016,-0.04
1670355139.319997,-9.503,-0.10400000000000001,4.23,-0.6413,-0.38920000000000005,0.34690000000000004,0.012,0.013000000000000001,-0.046
1670355139.359997,-9.515,-0.108,4.267,-0.6441,-0.38870000000000005,0.3522,0.012,0.016,-0.048
1670355139.399997,-9.505,-0.122,4.2,-0.6378,-0.3929,0.34890000000000004,0.013000000000000001,0.015,-0.054
1670355139.439997,-9.458,-0.126,4.246,-0.6397,-0.39030000000000004,0.3477,-0.005,0.021,-0.046
1670355139.479997,-9.515,-0.084,4.238,-0.6384000000000001,-0.38880000000000003,0.34790000000000004,-0.012,0.022,-0.039
1670355139.519997,-9.529,-0.126,4.251,-0.6515000000000001,-0.39330000000000004,0.36210000000000003,0.009000000000000001,0.022,-0.046
1670355139.5599968,-9.496,-0.059000000000000004,4.213,-0.6404000000000001,-0.391,0.36150000000000004,0.012,0.022,-0.059000000000000004
1670355139.599997,-9.496,-0.149,4.226,-0.6404000000000001,-0.3917,0.32980000000000004,0.001,0.02,-0.05
1670355139.639997,-9.488,-0.149,4.226,-0.6436000000000001,-0.3917,0.32980000000000004,-0.001,0.007,-0.034
1670355139.679996,-9.502,-0.08,4.248,-0.6399,-0.3906,0.3653,0.004,0.014,-0.051000000000000004
1670355139.719996,-9.537,-0.08,4.272,-0.6364000000000001,-0.39030000000000004,0.3422,0.017,0.005,-0.059000000000000004
1670355139.759996,-9.471,-0.183,4.191,-0.6419,-0.38930000000000003,0.33190000000000003,-0.002,0.01,-0.049
1670355139.799996,-9.450000000000001,-0.099,4.241,-0.64,-0.39030000000000004,0.3492,0.011,0.009000000000000001,-0.037
1670355139.839996,-9.534,-0.123,4.2700000000000005,-0.6387,-0.3904,0.35100000000000003,0.023,0.014,-0.049
1670355139.879996,-9.49,-0.065,4.26,-0.6401,-0.3891,0.3493,0.026000000000000002,0.015,-0.051000000000000004
1670355139.919996,-9.502,-0.10400000000000001,4.242,-0.6408,-0.3921,0.34890000000000004,0.01,0.003,-0.028
1670355139.959996,-9.496,-0.074,4.2700000000000005,-0.6394000000000001,-0.3914,0.35100000000000003,0.012,0.003,-0.041
1670355139.999996,-9.506,-0.053,4.273,-0.6403,-0.3899,0.34840000000000004,0.022,0.003,-0.049
1670355140.039996,-9.486,-0.095,4.246,-0.6409,-0.393,0.3491,0.012,0.007,-0.046
1670355140.079996,-9.481,-0.092,4.284,-0.6402,-0.391,0.34900000000000003,0.007,0.01,-0.044
1670355140.119996,-9.479000000000001,-0.081,4.273,-0.6388,-0.3911,0.34940000000000004,0.001,0.016,-0.051000000000000004
1670355140.159996,-9.513,-0.083,4.269,-0.6391,-0.3917,0.34900000000000003,0.005,0.012,-0.048
1670355140.199996,-9.473,-0.079,4.33,-0.641,-0.3899,0.35350000000000004,0.001,0.02,-0.049
1670355140.239996,-9.486,-0.094,4.311,-0.6394000000000001,-0.39030000000000004,0.34990000000000004,0.002,0.018000000000000002,-0.049
1670355140.279996,-9.465,-0.074,4.297,-0.6458,-0.39580000000000004,0.3544,0.002,0.014,-0.053
1670355140.319996,-9.473,-0.07100000000000001,4.282,-0.6387,-0.391,0.3502,0.002,0.016,-0.05
1670355140.359996,-9.414,-0.099,4.268,-0.6394000000000001,-0.3895,0.35050000000000003,-0.004,0.013000000000000001,-0.05
1670355140.399996,-9.53,-0.076,4.282,-0.6388,-0.3914,0.3518,0.008,0.018000000000000002,-0.038
1670355140.439996,-9.534,-0.09,4.303,-0.6419,-0.39280000000000004,0.3507,0.009000000000000001,0.036000000000000004,-0.055
1670355140.479996,-9.439,-0.097,4.26,-0.6374000000000001,-0.38920000000000005,0.3527,-0.006,0.027,-0.049
1670355140.519996,-9.458,-0.101,4.232,-0.6411,-0.39030000000000004,0.34790000000000004,-0.003,0.005,-0.05
1670355140.559996,-9.518,-0.068,4.293,-0.6394000000000001,-0.3902,0.3501,0.005,0.01,-0.056
1670355140.5999959,-9.502,-0.068,4.295,-0.6452,-0.3905,0.3561,0.009000000000000001,0.02,-0.06
1670355140.639996,-9.468,-0.14,4.293,-0.6398,-0.3925,0.34750000000000003,0.0,0.015,-0.056
1670355140.679996,-9.446,-0.062,4.249,-0.6432,-0.392,0.3483,0.003,0.011,-0.05
1670355140.719995,-9.539,-0.107,4.285,-0.6389,-0.3895,0.3522,0.015,0.013000000000000001,-0.049
1670355140.759995,-9.499,-0.056,4.285,-0.6414000000000001,-0.3896,0.3491,0.015,0.019,-0.052000000000000005
1670355140.799995,-9.472,-0.107,4.32,-0.64,-0.39330000000000004,0.3502,0.01,0.007,-0.042
1670355140.839995,-9.481,-0.08,4.293,-0.6381,-0.3885,0.3488,0.011,0.001,-0.048
1670355140.879995,-9.485,-0.068,4.301,-0.6386000000000001,-0.3902,0.35100000000000003,0.009000000000000001,0.014,-0.054
1670355140.919995,-9.46,-0.091,4.274,-0.6391,-0.3921,0.3497,0.009000000000000001,0.015,-0.052000000000000005
1670355140.959995,-9.479000000000001,-0.10200000000000001,4.3260000000000005,-0.6405000000000001,-0.38980000000000004,0.35250000000000004,0.0,0.017,-0.051000000000000004
1670355140.999995,-9.489,-0.067,4.299,-0.6377,-0.3921,0.3503,0.007,0.02,-0.048
1670355141.039995,-9.479000000000001,-0.09,4.322,-0.6402,-0.391,0.3493,0.004,0.02,-0.058
1670355141.079995,-9.499,-0.056,4.293,-0.6385000000000001,-0.391,0.35100000000000003,0.012,0.028,-0.052000000000000005
1670355141.119995,-9.475,-0.076,4.285,-0.6401,-0.3906,0.3498,0.01,0.016,-0.048
1670355141.159995,-9.473,-0.113,4.295,-0.639,-0.3919,0.3518,0.001,0.018000000000000002,-0.05
1670355141.199995,-9.49,-0.065,4.312,-0.6393,-0.3896,0.3496,0.005,0.016,-0.05
1670355141.239995,-9.528,-0.013000000000000001,4.257,-0.6407,-0.3906,0.34900000000000003,0.011,0.017,-0.043000000000000003
1670355141.279995,-9.475,-0.153,4.251,-0.6411,-0.391,0.3496,0.014,0.025,-0.053
1670355141.319995,-9.445,-0.064,4.263,-0.6394000000000001,-0.3909,0.3512,0.0,0.017,-0.052000000000000005
1670355141.359995,-9.503,-0.041,4.293,-0.6389,-0.3902,0.3524,0.003,0.013000000000000001,-0.045
1670355141.3999949,-9.483,-0.059000000000000004,4.34,-0.6394000000000001,-0.3907,0.3497,0.016,0.01,-0.058
1670355141.439995,-9.469,-0.094,4.3100000000000005,-0.6411,-0.3905,0.3486,0.012,0.013000000000000001,-0.054
1670355141.479995,-9.496,-0.105,4.287,-0.6388,-0.392,0.3513,0.001,0.018000000000000002,-0.054
1670355141.519995,-9.49,-0.001,4.295,-0.6402,-0.39130000000000004,0.34850000000000003,0.006,0.008,-0.045
1670355141.559995,-9.513,-0.061,4.292,-0.6431,-0.3906,0.34940000000000004,0.009000000000000001,0.025,-0.052000000000000005
1670355141.599995,-9.455,-0.099,4.313,-0.6488,-0.3911,0.3527,0.018000000000000002,0.026000000000000002,-0.058
1670355141.6399949,-9.452,-0.061,4.279,-0.6412,-0.38780000000000003,0.3502,0.005,0.018000000000000002,-0.038
1670355141.679995,-9.508000000000001,-0.025,4.2940000000000005,-0.6401,-0.39230000000000004,0.35100000000000003,0.001,0.01,-0.044
1670355141.719995,-9.486,-0.076,4.292,-0.6402,-0.3914,0.3497,0.009000000000000001,0.006,-0.055
1670355141.759995,-9.475,-0.094,4.2620000000000005,-0.6397,-0.3915,0.36310000000000003,0.006,0.012,-0.056
1670355141.799995,-9.47,-0.081,4.308,-0.643,-0.3906,0.3431,0.001,0.016,-0.05
1670355141.839994,-9.47,-0.081,4.307,-0.643,-0.3906,0.3577,0.0,0.013000000000000001,-0.052000000000000005
1670355141.879994,-9.461,-0.043000000000000003,4.307,-0.6438,-0.3914,0.3577,0.009000000000000001,0.018000000000000002,-0.053
1670355141.919994,-9.475,-0.076,4.292,-0.6443,-0.3907,0.36160000000000003,0.013000000000000001,0.013000000000000001,-0.055
1670355141.959994,-9.467,-0.081,4.315,-0.6449,-0.3911,0.3534,0.008,0.016,-0.053
1670355141.999994,-9.463000000000001,-0.056,4.288,-0.6418,-0.393,0.36300000000000004,0.0,0.014,-0.046
1670355142.039994,-9.405,-0.093,4.315,-0.6418,-0.3885,0.3523,0.0,0.02,-0.049
1670355142.079994,-9.47,-0.067,4.3180000000000005,-0.6411,-0.3924,0.35150000000000003,0.014,0.016,-0.044
1670355142.119994,-9.545,-0.043000000000000003,4.33,-0.6405000000000001,-0.39330000000000004,0.35300000000000004,0.015,0.026000000000000002,-0.06
1670355142.159994,-9.44,-0.057,4.268,-0.638,-0.3925,0.3501,0.005,0.015,-0.054
1670355142.1999938,-9.443,-0.116,4.292,-0.6394000000000001,-0.3906,0.3504,-0.007,0.009000000000000001,-0.048
1670355142.239994,-9.484,-0.056,4.352,-0.64,-0.3895,0.3524,0.001,0.005,-0.058
1670355142.279994,-9.509,-0.051000000000000004,4.345,-0.6398,-0.3924,0.3531,0.009000000000000001,0.015,-0.06
1670355142.319994,-9.418000000000001,-0.122,4.331,-0.638,-0.3916,0.3516,0.0,0.012,-0.054
1670355142.359994,-9.431000000000001,-0.067,4.317,-0.6506000000000001,-0.3936,0.3593,0.007,0.012,-0.044
1670355142.399994,-9.487,-0.10200000000000001,4.3020000000000005,-0.6398,-0.392,0.3556,0.009000000000000001,0.021,-0.044
1670355142.4399939,-9.482,-0.028,4.333,-0.6472,-0.3926,0.3538,0.02,0.028,-0.065
1670355142.479994,-9.458,-0.077,4.343,-0.6406000000000001,-0.3911,0.3524,0.0,0.035,-0.037
1670355142.519994,-9.435,-0.096,4.298,-0.6401,-0.3921,0.35200000000000004,0.002,0.017,-0.037
1670355142.559994,-9.497,-0.026000000000000002,4.2940000000000005,-0.6411,-0.3904,0.3498,0.015,0.0,-0.063
1670355142.599994,-9.47,-0.028,4.311,-0.6411,-0.3914,0.3523,0.026000000000000002,0.013000000000000001,-0.076
1670355142.639994,-9.455,-0.159,4.32,-0.6416000000000001,-0.3911,0.3531,0.004,0.006,-0.051000000000000004
1670355142.6799939,-9.452,-0.068,4.322,-0.6422,-0.394,0.3496,-0.007,0.015,-0.043000000000000003
1670355142.719994,-9.469,-0.035,4.364,-0.643,-0.3907,0.3504,0.005,0.014,-0.058
1670355142.759994,-9.479000000000001,-0.062,4.321,-0.6416000000000001,-0.391,0.3514,0.013000000000000001,0.013000000000000001,-0.056
1670355142.799994,-9.443,-0.099,4.296,-0.6431,-0.3895,0.3549,0.01,0.017,-0.057
1670355142.839994,-9.46,-0.085,4.3340000000000005,-0.6437,-0.391,0.34840000000000004,0.005,0.016,-0.047
1670355142.879993,-9.442,-0.07,4.314,-0.6396000000000001,-0.3921,0.3532,0.004,0.018000000000000002,-0.05
1670355142.919993,-9.467,-0.049,4.343,-0.6397,-0.38970000000000005,0.3532,0.013000000000000001,0.02,-0.057
1670355142.959993,-9.432,-0.091,4.346,-0.6422,-0.3919,0.3483,0.007,0.022,-0.054
1670355142.9999928,-9.472,-0.14100000000000001,4.328,-0.6381,-0.3904,0.3529,-0.007,0.028,-0.053
1670355143.039993,-9.49,-0.084,4.333,-0.6395000000000001,-0.39080000000000004,0.3529,-0.007,0.024,-0.043000000000000003
1670355143.079993,-9.528,0.033,4.356,-0.6401,-0.3936,0.35450000000000004,0.002,0.022,-0.045
1670355143.119993,-9.442,-0.158,4.285,-0.6423,-0.3885,0.3521,0.009000000000000001,0.029,-0.051000000000000004
1670355143.159993,-9.402000000000001,-0.095,4.314,-0.6413,-0.39130000000000004,0.3501,0.0,0.022,-0.049
1670355143.199993,-9.456,-0.08,4.331,-0.6399,-0.3931,0.3483,-0.005,0.02,-0.046
1670355143.2399929,-9.474,-0.043000000000000003,4.351,-0.6405000000000001,-0.3921,0.3512,0.009000000000000001,0.015,-0.054
1670355143.279993,-9.476,-0.09,4.327,-0.6407,-0.39030000000000004,0.3516,0.006,0.02,-0.056
1670355143.319993,-9.473,-0.14300000000000002,4.319,-0.641,-0.3914,0.3521,-0.008,0.021,-0.061
1670355143.359993,-9.458,0.025,4.293,-0.6402,-0.3905,0.35300000000000004,0.003,0.02,-0.048
1670355143.399993,-9.484,-0.068,4.339,-0.6417,-0.3914,0.3544,0.01,0.019,-0.053
1670355143.439993,-9.461,-0.101,4.314,-0.6392,-0.3891,0.3527,0.006,0.021,-0.052000000000000005
1670355143.4799929,-9.458,-0.093,4.299,-0.6424000000000001,-0.3926,0.3523,-0.002,0.011,-0.039
1670355143.519993,-9.444,-0.062,4.346,-0.6375000000000001,-0.3911,0.3541,0.0,0.004,-0.049
1670355143.559993,-9.468,-0.07100000000000001,4.355,-0.6406000000000001,-0.3906,0.3534,0.008,0.011,-0.059000000000000004
1670355143.599993,-9.452,-0.116,4.315,-0.6449,-0.3911,0.35250000000000004,0.008,0.015,-0.053
1670355143.639993,-9.442,-0.082,4.327,-0.6388,-0.3909,0.35550000000000004,0.001,0.017,-0.045
1670355143.679993,-9.422,-0.064,4.329,-0.6391,-0.3919,0.3557,0.0,0.021,-0.042
1670355143.7199929,-9.46,-0.075,4.3340000000000005,-0.6386000000000001,-0.3917,0.35250000000000004,0.007,0.02,-0.046
1670355143.759993,-9.446,-0.081,4.344,-0.6446000000000001,-0.3926,0.3562,0.01,0.02,-0.047
1670355143.799993,-9.463000000000001,-0.064,4.2940000000000005,-0.6393,-0.3922,0.3544,0.01,0.021,-0.044
1670355143.839993,-9.435,-0.067,4.331,-0.6389,-0.38830000000000003,0.35100000000000003,0.014,0.021,-0.048
1670355143.879993,-9.463000000000001,-0.032,4.293,-0.6394000000000001,-0.39080000000000004,0.3528,0.015,0.023,-0.044
1670355143.919992,-9.443,-0.059000000000000004,4.284,-0.6388,-0.3924,0.3526,0.012,0.021,-0.048
1670355143.959992,-9.455,-0.108,4.308,-0.6413,-0.3922,0.3614,0.007,0.015,-0.06
1670355143.999992,-9.468,-0.068,4.32,-0.6443,-0.39080000000000004,0.3733,-0.007,0.012,-0.049
1670355144.0399919,-9.468,0.003,4.331,-0.6443,-0.3916,0.34490000000000004,0.0,0.014,-0.04
1670355144.079992,-9.53,0.003,4.297,-0.6418,-0.3916,0.34490000000000004,0.004,0.028,-0.052000000000000005
1670355144.119992,-9.455,-0.135,4.297,-0.6414000000000001,-0.39330000000000004,0.3336,-0.001,0.017,-0.051000000000000004
1670355144.159992,-9.4,-0.039,4.306,-0.6411,-0.39440000000000003,0.335,0.0,0.013000000000000001,-0.039
1670355144.199992,-9.451,-0.053,4.332,-0.6397,-0.3914,0.3408,0.009000000000000001,0.013000000000000001,-0.053
1670355144.239992,-9.458,-0.029,4.345,-0.6421,-0.39380000000000004,0.3634,0.012,0.016,-0.051000000000000004
1670355144.2799919,-9.481,-0.099,4.333,-0.6429,-0.3916,0.3396,0.002,0.019,-0.047
1670355144.319992,-9.487,-0.11800000000000001,4.367,-0.6383,-0.3912,0.3546,0.003,0.014,-0.039
1670355144.359992,-9.462,0.03,4.339,-0.6405000000000001,-0.3911,0.3543,0.005,0.031,-0.045
1670355144.399992,-9.479000000000001,-0.077,4.3340000000000005,-0.6408,-0.3932,0.35200000000000004,0.012,0.029,-0.048
1670355144.439992,-9.423,-0.051000000000000004,4.283,-0.6405000000000001,-0.392,0.3548,0.013000000000000001,0.021,-0.046
1670355144.479992,-9.46,-0.045,4.337,-0.6406000000000001,-0.391,0.3543,0.006,0.014,-0.046
1670355144.5199919,-9.478,-0.03,4.311,-0.6386000000000001,-0.3921,0.3521,0.02,0.017,-0.056
1670355144.559992,-9.446,-0.055,4.337,-0.6399,-0.3905,0.3524,0.009000000000000001,0.018000000000000002,-0.056
1670355144.599992,-9.478,-0.047,4.33,-0.6413,-0.3924,0.3509,0.001,0.021,-0.049
1670355144.639992,-9.449,-0.059000000000000004,4.3260000000000005,-0.6414000000000001,-0.3912,0.3552,-0.001,0.022,-0.053
1670355144.679992,-9.452,-0.045,4.351,-0.644,-0.3926,0.3578,-0.003,0.027,-0.046
1670355144.719992,-9.455,-0.047,4.312,-0.6393,-0.3924,0.3534,0.002,0.024,-0.054
1670355144.759992,-9.462,-0.058,4.323,-0.6414000000000001,-0.39130000000000004,0.3512,-0.001,0.022,-0.05
1670355144.799992,-9.467,-0.028,4.329,-0.638,-0.3911,0.3513,0.004,0.025,-0.046
1670355144.839992,-9.468,-0.034,4.276,-0.639,-0.3917,0.3521,0.007,0.02,-0.046
1670355144.879992,-9.482,-0.035,4.289,-0.6411,-0.3915,0.3534,0.01,0.015,-0.046
1670355144.919992,-9.483,-0.034,4.312,-0.6397,-0.39130000000000004,0.3512,0.013000000000000001,0.016,-0.052000000000000005
1670355144.959991,-9.438,-0.05,4.308,-0.6391,-0.39080000000000004,0.3537,0.006,0.005,-0.046
1670355144.999991,-9.512,-0.063,4.33,-0.642,-0.39230000000000004,0.3524,0.004,0.012,-0.04
1670355145.039991,-9.509,0.021,4.357,-0.6386000000000001,-0.39130000000000004,0.3518,0.018000000000000002,0.025,-0.054
1670355145.0799909,-9.409,-0.05,4.311,-0.6413,-0.39430000000000004,0.3537,0.017,0.014,-0.052000000000000005
1670355145.119991,-9.452,-0.046,4.29,-0.6403,-0.3924,0.3521,0.004,0.008,-0.047
1670355145.159991,-9.487,-0.007,4.3870000000000005,-0.6394000000000001,-0.3932,0.3514,0.009000000000000001,0.013000000000000001,-0.056
1670355145.199991,-9.491,-0.026000000000000002,4.4,-0.6391,-0.3925,0.35500000000000004,0.012,0.017,-0.061
1670355145.239991,-9.457,-0.067,4.364,-0.6411,-0.3937,0.3553,-0.001,0.02,-0.058
1670355145.279991,-9.418000000000001,-0.032,4.355,-0.6412,-0.39280000000000004,0.3508,-0.011,0.022,-0.049
1670355145.3199909,-9.466000000000001,-0.014,4.361,-0.6396000000000001,-0.3936,0.3554,0.008,0.035,-0.048
1670355145.359991,-9.491,0.0,4.352,-0.6399,-0.3925,0.35350000000000004,0.01,0.029,-0.057
1670355145.399991,-9.452,-0.053,4.329,-0.6381,-0.3911,0.3543,-0.002,0.027,-0.048
1670355145.439991,-9.467,-0.032,4.282,-0.637,-0.3925,0.35760000000000003,-0.003,0.02,-0.045
1670355145.479991,-9.494,0.001,4.323,-0.6417,-0.3934,0.3513,0.001,0.004,-0.06
1670355145.519991,-9.478,-0.062,4.303,-0.6405000000000001,-0.3917,0.3541,0.005,0.01,-0.064
1670355145.559991,-9.466000000000001,-0.074,4.285,-0.6385000000000001,-0.39130000000000004,0.3533,-0.001,0.008,-0.055
1670355145.599991,-9.445,-0.048,4.305,-0.6396000000000001,-0.3917,0.3532,-0.011,0.012,-0.053
1670355145.639991,-9.458,-0.04,4.357,-0.6491,-0.3907,0.3524,0.009000000000000001,0.012,-0.049
1670355145.679991,-9.451,-0.058,4.357,-0.6431,-0.39130000000000004,0.3557,0.009000000000000001,0.017,-0.056
1670355145.719991,-9.455,-0.07100000000000001,4.3420000000000005,-0.6404000000000001,-0.39130000000000004,0.3563,0.007,0.019,-0.058
1670355145.759991,-9.467,-0.031,4.3180000000000005,-0.6405000000000001,-0.39380000000000004,0.3548,0.008,0.014,-0.047
1670355145.799991,-9.47,-0.038,4.364,-0.6367,-0.3904,0.3539,0.008,0.024,-0.05
1670355145.839991,-9.455,-0.037,4.367,-0.6397,-0.393,0.3539,0.013000000000000001,0.022,-0.049
1670355145.879991,-9.491,-0.031,4.366,-0.6411,-0.3917,0.3527,0.011,0.025,-0.048
1670355145.919991,-9.461,-0.067,4.307,-0.6393,-0.393,0.35500000000000004,0.004,0.023,-0.054
1670355145.959991,-9.475,-0.085,4.314,-0.6385000000000001,-0.3914,0.35300000000000004,-0.007,0.024,-0.06
1670355145.99999,-9.464,-0.024,4.344,-0.6436000000000001,-0.3927,0.3539,-0.007,0.017,-0.052000000000000005
1670355146.03999,-9.479000000000001,0.037,4.311,-0.6386000000000001,-0.3921,0.35300000000000004,0.001,0.0,-0.04
1670355146.07999,-9.461,-0.134,4.2940000000000005,-0.6405000000000001,-0.3927,0.3556,0.009000000000000001,0.021,-0.057
1670355146.1199899,-9.409,-0.016,4.307,-0.6394000000000001,-0.39430000000000004,0.3529,0.01,0.02,-0.063
1670355146.15999,-9.437,-0.069,4.3340000000000005,-0.6383,-0.3936,0.3518,0.001,0.01,-0.043000000000000003
1670355146.19999,-9.472,-0.011,4.356,-0.6394000000000001,-0.394,0.3659,0.007,0.012,-0.051000000000000004
1670355146.23999,-9.465,-0.077,4.372,-0.6423,-0.39430000000000004,0.3665,0.019,0.014,-0.055
1670355146.27999,-9.465,-0.096,4.349,-0.6423,-0.393,0.37720000000000004,0.008,0.016,-0.053
1670355146.31999,-9.426,-0.096,4.343,-0.6425000000000001,-0.393,0.37720000000000004,-0.004,0.019,-0.047
1670355146.35999,-9.425,0.001,4.343,-0.6412,-0.3921,0.32270000000000004,0.003,0.031,-0.044
1670355146.39999,-9.446,-0.076,4.311,-0.6421,-0.3914,0.34600000000000003,0.018000000000000002,0.024,-0.054
1670355146.43999,-9.464,-0.036000000000000004,4.327,-0.6485000000000001,-0.3946,0.3488,0.006,0.025,-0.05
1670355146.47999,-9.449,-0.062,4.33,-0.6408,-0.39530000000000004,0.3556,0.0,0.015,-0.044
1670355146.51999,-9.463000000000001,-0.03,4.357,-0.6549,-0.394,0.3554,0.003,0.009000000000000001,-0.051000000000000004
1670355146.55999,-9.488,-0.033,4.325,-0.6414000000000001,-0.3916,0.3512,0.015,0.001,-0.062
1670355146.59999,-9.436,-0.084,4.36,-0.6425000000000001,-0.3952,0.3627,0.0,0.008,-0.057
1670355146.63999,-9.441,-0.08,4.339,-0.6386000000000001,-0.3927,0.3559,-0.004,0.009000000000000001,-0.047
1670355146.67999,-9.43,-0.041,4.364,-0.6512,-0.39880000000000004,0.3629,0.004,0.007,-0.054
1670355146.71999,-9.423,-0.033,4.3790000000000004,-0.6383,-0.3914,0.3549,0.005,0.012,-0.058
1670355146.75999,-9.43,-0.066,4.351,-0.6391,-0.3919,0.35700000000000004,0.011,0.015,-0.053
1670355146.79999,-9.44,-0.065,4.38,-0.6404000000000001,-0.39280000000000004,0.3546,0.007,0.009000000000000001,-0.051000000000000004
1670355146.83999,-9.431000000000001,-0.041,4.363,-0.6397,-0.3942,0.35650000000000004,0.009000000000000001,0.011,-0.048
1670355146.87999,-9.421,-0.052000000000000005,4.372,-0.6405000000000001,-0.3906,0.3564,0.015,0.014,-0.053
1670355146.91999,-9.451,-0.07,4.386,-0.6397,-0.3914,0.3561,0.009000000000000001,0.019,-0.049
1670355146.95999,-9.432,-0.051000000000000004,4.391,-0.6376000000000001,-0.393,0.3539,0.005,0.02,-0.051000000000000004
1670355146.99999,-9.453,-0.07,4.366,-0.6392,-0.3951,0.3588,0.007,0.013000000000000001,-0.045
1670355147.039989,-9.442,-0.049,4.3790000000000004,-0.6407,-0.39280000000000004,0.3561,0.006,0.018000000000000002,-0.047
1670355147.079989,-9.426,-0.032,4.3790000000000004,-0.6389,-0.39130000000000004,0.3552,0.007,0.021,-0.046
1670355147.119989,-9.455,-0.064,4.398,-0.6387,-0.39380000000000004,0.3544,0.004,0.021,-0.05
1670355147.1599889,-9.44,-0.044,4.361,-0.6397,-0.3926,0.3562,0.001,0.023,-0.049
1670355147.199989,-9.402000000000001,-0.028,4.38,-0.6396000000000001,-0.3924,0.3546,-0.005,0.029,-0.048
1670355147.239989,-9.422,0.008,4.351,-0.6388,-0.39280000000000004,0.3577,0.011,0.014,-0.038
1670355147.279989,-9.478,-0.095,4.359,-0.6385000000000001,-0.3925,0.3553,0.014,0.032,-0.056
1670355147.319989,-9.397,0.001,4.323,-0.6394000000000001,-0.3929,0.3561,0.001,0.027,-0.055
1670355147.359989,-9.436,-0.079,4.336,-0.6389,-0.3919,0.3573,-0.005,0.015,-0.039
1670355147.399989,-9.468,-0.029,4.364,-0.6408,-0.3942,0.3521,-0.002,0.008,-0.052000000000000005
1670355147.439989,-9.446,-0.03,4.373,-0.6387,-0.3924,0.3537,0.016,0.009000000000000001,-0.062
1670355147.479989,-9.439,-0.08600000000000001,4.388,-0.6391,-0.3929,0.3549,0.0,0.014,-0.049
1670355147.519989,-9.426,-0.064,4.372,-0.6375000000000001,-0.3935,0.3551,-0.006,0.014,-0.031
1670355147.559989,-9.49,-0.005,4.391,-0.6414000000000001,-0.38970000000000005,0.3574,0.004,0.031,-0.048
1670355147.599989,-9.469,-0.01,4.4030000000000005,-0.6397,-0.39390000000000003,0.3562,0.014,0.022,-0.057
1670355147.639989,-9.433,-0.07100000000000001,4.366,-0.64,-0.3941,0.3563,0.009000000000000001,0.016,-0.053
1670355147.679989,-9.417,-0.038,4.37,-0.6407,-0.3925,0.3589,-0.008,0.015,-0.036000000000000004
1670355147.719989,-9.472,0.003,4.337,-0.6397,-0.3955,0.35810000000000003,-0.002,0.017,-0.05
1670355147.759989,-9.446,-0.05,4.345,-0.6377,-0.39440000000000003,0.3567,0.009000000000000001,0.019,-0.057
1670355147.799989,-9.441,-0.074,4.372,-0.6384000000000001,-0.3956,0.35200000000000004,0.0,0.012,-0.047
1670355147.839989,-9.437,-0.04,4.367,-0.6407,-0.39230000000000004,0.3584,-0.004,0.018000000000000002,-0.051000000000000004
1670355147.879989,-9.443,-0.047,4.338,-0.6377,-0.3911,0.35900000000000004,0.002,0.014,-0.052000000000000005
1670355147.919989,-9.436,-0.05,4.367,-0.638,-0.3927,0.3556,0.004,0.014,-0.05
1670355147.959989,-9.433,-0.026000000000000002,4.3420000000000005,-0.6383,-0.3925,0.3551,0.009000000000000001,0.015,-0.044
1670355147.999989,-9.429,-0.04,4.36,-0.6403,-0.3935,0.3559,0.01,0.016,-0.042
1670355148.039989,-9.455,-0.028,4.418,-0.6382,-0.39390000000000003,0.3572,0.011,0.012,-0.048
1670355148.079988,-9.436,-0.041,4.349,-0.6375000000000001,-0.3925,0.3529,0.012,0.02,-0.044
1670355148.119988,-9.449,-0.037,4.343,-0.6367,-0.3922,0.3542,0.007,0.024,-0.045
1670355148.159988,-9.431000000000001,-0.046,4.388,-0.6381,-0.39590000000000003,0.3559,0.007,0.026000000000000002,-0.05
1670355148.199988,-9.415000000000001,-0.075,4.375,-0.6385000000000001,-0.3941,0.3542,0.004,0.018000000000000002,-0.05
1670355148.239988,-9.44,-0.025,4.36,-0.6405000000000001,-0.3921,0.3558,0.0,0.015,-0.049
1670355148.279988,-9.471,0.014,4.336,-0.6388,-0.3947,0.35200000000000004,-0.001,0.023,-0.037
1670355148.319988,-9.434000000000001,-0.083,4.351,-0.6418,-0.3905,0.3568,0.005,0.025,-0.049
1670355148.359988,-9.403,-0.007,4.328,-0.6378,-0.3941,0.35600000000000004,0.005,0.018000000000000002,-0.048
1670355148.399988,-9.469,0.017,4.324,-0.6389,-0.3924,0.3541,0.004,0.014,-0.043000000000000003
1670355148.439988,-9.46,-0.022,4.418,-0.6444000000000001,-0.39640000000000003,0.3546,0.012,0.012,-0.054
1670355148.479988,-9.447000000000001,-0.067,4.345,-0.6397,-0.39230000000000004,0.32330000000000003,0.008,0.01,-0.057
1670355148.519988,-9.447000000000001,-0.091,4.3870000000000005,-0.6397,-0.3915,0.3624,0.0,0.016,-0.055
1670355148.559988,-9.423,-0.091,4.3870000000000005,-0.6425000000000001,-0.3915,0.3624,-0.008,0.012,-0.04
1670355148.599988,-9.408,0.047,4.38,-0.6449,-0.3961,0.3375,0.003,0.024,-0.049
1670355148.639988,-9.43,-0.046,4.363,-0.644,-0.39480000000000004,0.3345,0.019,0.021,-0.061
1670355148.679988,-9.419,-0.029,4.3870000000000005,-0.6437,-0.39440000000000003,0.3594,0.009000000000000001,0.016,-0.041
1670355148.719988,-9.418000000000001,-0.026000000000000002,4.396,-0.6407,-0.394,0.35950000000000004,0.005,0.018000000000000002,-0.038
1670355148.759988,-9.449,0.008,4.34,-0.6422,-0.395,0.3592,0.012,0.015,-0.056
1670355148.799988,-9.457,-0.022,4.392,-0.6384000000000001,-0.39280000000000004,0.3579,0.009000000000000001,0.016,-0.055
1670355148.839988,-9.432,-0.047,4.37,-0.6431,-0.3935,0.3563,0.0,0.022,-0.049
1670355148.879988,-9.448,-0.033,4.36,-0.6392,-0.393,0.35850000000000004,-0.003,0.024,-0.051000000000000004
1670355148.919988,-9.433,-0.001,4.375,-0.6374000000000001,-0.3941,0.3563,0.004,0.028,-0.058
1670355148.959988,-9.446,-0.002,4.357,-0.6405000000000001,-0.3936,0.3552,0.01,0.028,-0.054
1670355148.999988,-9.424,-0.028,4.388,-0.6388,-0.3916,0.3547,0.0,0.027,-0.05
1670355149.039988,-9.454,-0.038,4.361,-0.6372,-0.3942,0.3554,0.004,0.027,-0.048
1670355149.079988,-9.46,0.008,4.331,-0.6393,-0.3932,0.3568,0.008,0.029,-0.05
1670355149.119987,-9.445,-0.004,4.303,-0.6389,-0.39440000000000003,0.3588,0.012,0.02,-0.056
1670355149.159987,-9.443,-0.073,4.314,-0.638,-0.39380000000000004,0.3593,0.004,0.019,-0.049
1670355149.199987,-9.469,-0.008,4.382,-0.6421,-0.3951,0.3548,0.001,0.021,-0.045
1670355149.239987,-9.471,0.063,4.329,-0.6402,-0.3922,0.35500000000000004,0.011,0.022,-0.046
1670355149.279987,-9.427,-0.082,4.295,-0.6386000000000001,-0.3951,0.35700000000000004,0.014,0.017,-0.051000000000000004
1670355149.319987,-9.432,0.0,4.323,-0.6349,-0.393,0.3559,0.001,0.016,-0.053
1670355149.359987,-9.456,0.01,4.323,-0.6389,-0.3961,0.35650000000000004,0.006,0.014,-0.048
1670355149.399987,-9.482,-0.003,4.376,-0.6373,-0.395,0.3592,0.009000000000000001,0.015,-0.053
1670355149.439987,-9.437,-0.012,4.348,-0.6371,-0.39280000000000004,0.35450000000000004,0.012,0.015,-0.053
1670355149.479987,-9.46,-0.07100000000000001,4.308,-0.6357,-0.3934,0.3564,0.0,0.01,-0.047
1670355149.519987,-9.446,0.089,4.357,-0.6383,-0.39380000000000004,0.3574,0.011,0.019,-0.049
1670355149.559987,-9.496,-0.051000000000000004,4.34,-0.6391,-0.3935,0.35300000000000004,0.012,0.017,-0.054
1670355149.599987,-9.431000000000001,-0.016,4.329,-0.6382,-0.39280000000000004,0.3563,0.013000000000000001,0.027,-0.049
1670355149.639987,-9.431000000000001,-0.022,4.321,-0.6494,-0.39530000000000004,0.3593,-0.001,0.021,-0.044
1670355149.679987,-9.485,0.031,4.346,-0.6394000000000001,-0.3911,0.3563,0.0,0.012,-0.049
1670355149.719987,-9.457,0.009000000000000001,4.323,-0.6384000000000001,-0.3941,0.3572,0.019,0.013000000000000001,-0.06
1670355149.759987,-9.438,-0.056,4.332,-0.6419,-0.3951,0.3554,0.0,0.017,-0.058
1670355149.799987,-9.446,-0.032,4.355,-0.6397,-0.3927,0.3552,-0.008,0.022,-0.045
1670355149.839987,-9.428,0.011,4.355,-0.6409,-0.3945,0.3556,0.001,0.016,-0.048
1670355149.879987,-9.466000000000001,-0.017,4.376,-0.6404000000000001,-0.3926,0.3557,0.01,0.021,-0.058
1670355149.919987,-9.414,-0.023,4.388,-0.6388,-0.39390000000000003,0.3539,0.006,0.022,-0.058
1670355149.959987,-9.457,-0.043000000000000003,4.358,-0.6417,-0.39280000000000004,0.3532,0.005,0.018000000000000002,-0.05
1670355149.999987,-9.442,0.003,4.328,-0.6411,-0.39490000000000003,0.35400000000000004,0.004,0.021,-0.049
1670355150.0399868,-9.449,0.014,4.36,-0.6408,-0.3917,0.35400000000000004,0.013000000000000001,0.02,-0.057
1670355150.079987,-9.436,-0.052000000000000005,4.331,-0.6388,-0.3929,0.3538,0.006,0.017,-0.049
1670355150.119987,-9.508000000000001,-0.039,4.375,-0.6391,-0.39390000000000003,0.3547,-0.006,0.023,-0.045
1670355150.159986,-9.487,0.099,4.333,-0.6418,-0.3961,0.3554,0.007,0.017,-0.049
1670355150.199986,-9.414,-0.059000000000000004,4.315,-0.6405000000000001,-0.3925,0.3546,0.007,0.025,-0.059000000000000004
1670355150.239986,-9.442,-0.054,4.33,-0.6409,-0.3932,0.35200000000000004,-0.006,0.023,-0.058
1670355150.279986,-9.451,-0.011,4.345,-0.6419,-0.39080000000000004,0.3534,-0.008,0.014,-0.049
1670355150.319986,-9.479000000000001,0.006,4.388,-0.6425000000000001,-0.3935,0.3549,0.0,0.014,-0.056
1670355150.359986,-9.463000000000001,-0.046,4.339,-0.6435000000000001,-0.3932,0.3539,0.005,0.017,-0.057
1670355150.399986,-9.445,-0.097,4.373,-0.6396000000000001,-0.39280000000000004,0.3536,-0.007,0.021,-0.064
1670355150.439986,-9.448,0.065,4.317,-0.6406000000000001,-0.3945,0.3543,-0.004,0.016,-0.035
1670355150.479986,-9.478,-0.057,4.309,-0.6415000000000001,-0.3947,0.3534,0.009000000000000001,0.024,-0.05
1670355150.519986,-9.446,-0.034,4.339,-0.6409,-0.3951,0.3548,0.014,0.032,-0.058
1670355150.559986,-9.449,-0.039,4.349,-0.6419,-0.3929,0.3568,0.008,0.018000000000000002,-0.049
1670355150.599986,-9.436,0.007,4.3020000000000005,-0.6447,-0.3915,0.3543,0.005,0.012,-0.042
1670355150.639986,-9.472,-0.028,4.353,-0.6519,-0.393,0.3557,0.015,0.011,-0.051000000000000004
1670355150.679986,-9.455,-0.055,4.355,-0.6443,-0.3935,0.3477,0.009000000000000001,0.011,-0.058
1670355150.719986,-9.456,-0.037,4.3790000000000004,-0.6486000000000001,-0.3947,0.3773,-0.001,0.014,-0.049
1670355150.759986,-9.456,-0.02,4.324,-0.6486000000000001,-0.3947,0.3422,-0.001,0.016,-0.053
1670355150.799986,-9.46,-0.02,4.324,-0.6438,-0.3941,0.3422,0.005,0.02,-0.049
1670355150.8399858,-9.445,-0.014,4.372,-0.6446000000000001,-0.3946,0.364,0.012,0.019,-0.051000000000000004
1670355150.879986,-9.469,-0.049,4.33,-0.6445000000000001,-0.3955,0.3305,0.004,0.019,-0.049
1670355150.919986,-9.44,-0.021,4.333,-0.644,-0.3932,0.334,0.008,0.021,-0.046
1670355150.959986,-9.445,-0.008,4.317,-0.6424000000000001,-0.3941,0.33330000000000004,0.012,0.017,-0.046
1670355150.999986,-9.442,-0.032,4.331,-0.6442,-0.39580000000000004,0.35200000000000004,0.009000000000000001,0.018000000000000002,-0.047
1670355151.039986,-9.456,-0.001,4.279,-0.6416000000000001,-0.395,0.3536,0.009000000000000001,0.019,-0.055
1670355151.0799859,-9.404,-0.044,4.3420000000000005,-0.6408,-0.39280000000000004,0.35300000000000004,-0.001,0.013000000000000001,-0.047
1670355151.119986,-9.463000000000001,-0.052000000000000005,4.316,-0.6428,-0.3916,0.35300000000000004,0.003,0.008,-0.036000000000000004
1670355151.159986,-9.522,0.041,4.3790000000000004,-0.6413,-0.3946,0.35300000000000004,0.015,0.017,-0.06
1670355151.199986,-9.431000000000001,-0.032,4.321,-0.6404000000000001,-0.3935,0.3559,0.01,0.021,-0.058
1670355151.239986,-9.425,-0.036000000000000004,4.333,-0.6437,-0.39330000000000004,0.3521,0.002,0.01,-0.054
1670355151.279985,-9.448,-0.016,4.3340000000000005,-0.6423,-0.39390000000000003,0.35100000000000003,0.001,0.007,-0.046
1670355151.319985,-9.469,-0.019,4.384,-0.6422,-0.3952,0.3534,0.0,0.01,-0.053
1670355151.359985,-9.476,-0.017,4.354,-0.6448,-0.3936,0.3539,0.002,0.016,-0.059000000000000004
1670355151.399985,-9.452,-0.044,4.336,-0.6443,-0.395,0.35400000000000004,-0.006,0.01,-0.043000000000000003
1670355151.439985,-9.467,0.056,4.339,-0.6413,-0.39530000000000004,0.3543,0.002,0.016,-0.039
1670355151.479985,-9.469,0.01,4.399,-0.6419,-0.39380000000000004,0.35760000000000003,0.011,0.019,-0.056
1670355151.519985,-9.454,-0.057,4.357,-0.6431,-0.3919,0.3538,0.004,0.013000000000000001,-0.041
1670355151.559985,-9.436,-0.039,4.374,-0.6436000000000001,-0.39380000000000004,0.3528,-0.005,0.014,-0.039
1670355151.599985,-9.437,0.013000000000000001,4.353,-0.644,-0.3942,0.3567,0.002,0.009000000000000001,-0.051000000000000004
1670355151.6399848,-9.464,-0.019,4.337,-0.6419,-0.39390000000000003,0.3512,0.008,0.009000000000000001,-0.057
1670355151.679985,-9.433,-0.05,4.343,-0.6404000000000001,-0.3927,0.35300000000000004,0.0,0.015,-0.054
1670355151.719985,-9.462,-0.036000000000000004,4.37,-0.6416000000000001,-0.3924,0.3532,-0.008,0.021,-0.046
1670355151.759985,-9.446,0.0,4.383,-0.6419,-0.3955,0.35350000000000004,-0.001,0.017,-0.048
1670355151.799985,-9.425,-0.011,4.386,-0.6472,-0.393,0.3538,0.005,0.02,-0.056
1670355151.839985,-9.449,-0.027,4.374,-0.6407,-0.3951,0.3562,0.008,0.011,-0.047
1670355151.8799849,-9.426,-0.015,4.337,-0.6425000000000001,-0.3934,0.3528,0.008,0.016,-0.048
1670355151.919985,-9.437,-0.01,4.383,-0.6417,-0.3942,0.3532,0.002,0.024,-0.045
1670355151.959985,-9.444,-0.011,4.314,-0.6414000000000001,-0.3932,0.3557,0.003,0.019,-0.048
1670355151.999985,-9.452,-0.008,4.378,-0.6419,-0.3935,0.3529,0.003,0.018000000000000002,-0.051000000000000004
1670355152.039985,-9.449,-0.017,4.348,-0.6434000000000001,-0.3952,0.3552,0.004,0.021,-0.056
1670355152.079985,-9.397,-0.048,4.345,-0.6416000000000001,-0.3921,0.3531,-0.001,0.016,-0.054
1670355152.1199849,-9.469,-0.012,4.36,-0.6402,-0.39540000000000003,0.3561,-0.007,0.019,-0.048
1670355152.159985,-9.498,0.031,4.39,-0.6404000000000001,-0.3941,0.35400000000000004,0.004,0.019,-0.053
1670355152.199985,-9.391,-0.043000000000000003,4.336,-0.6401,-0.3927,0.3529,0.003,0.013000000000000001,-0.056
1670355152.239985,-9.399000000000001,-0.023,4.339,-0.6442,-0.394,0.3541,-0.003,0.007,-0.043000000000000003
1670355152.279985,-9.459,0.004,4.389,-0.6446000000000001,-0.3947,0.3559,0.006,0.009000000000000001,-0.053
1670355152.319984,-9.442,-0.013000000000000001,4.384,-0.6432,-0.3917,0.3562,0.005,0.008,-0.061
1670355152.359984,-9.448,-0.047,4.416,-0.6446000000000001,-0.397,0.3537,0.005,0.008,-0.05
1670355152.399984,-9.433,-0.07,4.418,-0.6428,-0.3937,0.3538,-0.002,0.018000000000000002,-0.052000000000000005
1670355152.4399838,-9.431000000000001,0.07100000000000001,4.4,-0.6416000000000001,-0.3952,0.35200000000000004,0.009000000000000001,0.013000000000000001,-0.044
1670355152.479984,-9.450000000000001,-0.04,4.353,-0.6413,-0.3941,0.3524,0.015,0.022,-0.062
1670355152.519984,-9.388,-0.062,4.373,-0.6443,-0.3914,0.35400000000000004,0.011,0.026000000000000002,-0.049
1670355152.559984,-9.42,-0.002,4.336,-0.6418,-0.39080000000000004,0.3531,0.0,0.014,-0.035
1670355152.599984,-9.452,0.041,4.368,-0.6441,-0.3926,0.3548,0.012,0.01,-0.053
1670355152.639984,-9.428,-0.008,4.397,-0.6422,-0.3972,0.3551,0.018000000000000002,0.014,-0.061
1670355152.6799839,-9.414,-0.067,4.382,-0.642,-0.3932,0.3564,0.005,0.009000000000000001,-0.051000000000000004
1670355152.719984,-9.455,-0.023,4.3870000000000005,-0.6455000000000001,-0.395,0.35400000000000004,-0.005,0.012,-0.047
1670355152.759984,-9.418000000000001,0.007,4.406,-0.6485000000000001,-0.39430000000000004,0.3552,0.0,0.019,-0.051000000000000004
1670355152.799984,-9.445,-0.022,4.416,-0.6486000000000001,-0.3952,0.36010000000000003,0.007,0.02,-0.051000000000000004
1670355152.839984,-9.425,-0.037,4.409,-0.6422,-0.3924,0.3533,0.001,0.02,-0.047
1670355152.879984,-9.43,-0.018000000000000002,4.406,-0.6438,-0.39440000000000003,0.35400000000000004,0.006,0.027,-0.049
1670355152.9199839,-9.438,-0.007,4.4030000000000005,-0.645,-0.3931,0.34550000000000003,0.005,0.023,-0.044
1670355152.959984,-9.397,-0.019,4.3950000000000005,-0.6434000000000001,-0.3925,0.3376,0.009000000000000001,0.03,-0.048
1670355152.999984,-9.397,-0.019,4.412,-0.6434000000000001,-0.3925,0.36260000000000003,0.017,0.02,-0.055
1670355153.039984,-9.448,-0.047,4.412,-0.6435000000000001,-0.3941,0.36260000000000003,0.004,0.019,-0.048
1670355153.079984,-9.4,0.0,4.373,-0.6428,-0.3924,0.3395,0.002,0.015,-0.046
1670355153.119984,-9.475,0.052000000000000005,4.366,-0.6436000000000001,-0.39390000000000003,0.37370000000000003,0.011,0.029,-0.055
1670355153.1599839,-9.443,-0.07200000000000001,4.352,-0.6429,-0.3934,0.3642,0.01,0.018000000000000002,-0.058
1670355153.199984,-9.397,0.037,4.3790000000000004,-0.6437,-0.3935,0.3563,-0.001,0.014,-0.044
1670355153.239984,-9.396,-0.007,4.367,-0.6411,-0.3936,0.3548,0.007,0.004,-0.052000000000000005
1670355153.279984,-9.450000000000001,0.002,4.413,-0.6411,-0.393,0.3577,0.004,0.01,-0.06
1670355153.319984,-9.425,-0.044,4.44,-0.6429,-0.3955,0.3538,0.006,0.01,-0.052000000000000005
1670355153.359983,-9.39,-0.035,4.428,-0.641,-0.3942,0.35300000000000004,0.003,0.021,-0.053
1670355153.399983,-9.371,0.022,4.434,-0.6422,-0.39530000000000004,0.35710000000000003,0.011,0.02,-0.043000000000000003
1670355153.439983,-9.448,-0.055,4.375,-0.6424000000000001,-0.3937,0.35400000000000004,0.014,0.03,-0.05
1670355153.4799829,-9.448,0.01,4.416,-0.6463,-0.39530000000000004,0.3548,0.01,0.027,-0.057
1670355153.519983,-9.402000000000001,-0.029,4.382,-0.6438,-0.3942,0.35650000000000004,0.001,0.024,-0.044
1670355153.559983,-9.446,0.016,4.3790000000000004,-0.643,-0.39530000000000004,0.3528,0.008,0.016,-0.049
1670355153.599983,-9.448,0.007,4.381,-0.6438,-0.3927,0.3546,0.011,0.017,-0.061
1670355153.639983,-9.44,-0.033,4.404,-0.6563,-0.39980000000000004,0.3672,0.005,0.018000000000000002,-0.057
1670355153.679983,-9.441,-0.045,4.3420000000000005,-0.6455000000000001,-0.394,0.35400000000000004,-0.006,0.015,-0.045
1670355153.7199829,-9.448,0.001,4.36,-0.6441,-0.39380000000000004,0.3554,0.0,0.017,-0.046
1670355153.759983,-9.425,0.001,4.391,-0.6432,-0.3937,0.35660000000000003,0.004,0.017,-0.055
1670355153.799983,-9.416,-0.019,4.423,-0.6447,-0.3965,0.3653,0.013000000000000001,0.013000000000000001,-0.053
1670355153.839983,-9.43,-0.027,4.39,-0.6488,-0.39640000000000003,0.3568,0.006,0.014,-0.049
1670355153.879983,-9.421,0.007,4.413,-0.6417,-0.3945,0.3551,0.0,0.016,-0.047
1670355153.919983,-9.426,0.014,4.405,-0.6426000000000001,-0.3947,0.35700000000000004,0.011,0.019,-0.057
1670355153.9599829,-9.424,-0.01,4.363,-0.6459,-0.3942,0.3587,0.011,0.018000000000000002,-0.057
1670355153.999983,-9.446,-0.008,4.41,-0.64,-0.39280000000000004,0.35710000000000003,0.0,0.015,-0.056
1670355154.039983,-9.351,-0.019,4.3420000000000005,-0.6443,-0.3935,0.3544,-0.001,0.014,-0.049
1670355154.079983,-9.437,-0.019,4.353,-0.6419,-0.39590000000000003,0.3537,0.0,0.013000000000000001,-0.037
1670355154.119983,-9.482,0.033,4.3950000000000005,-0.6424000000000001,-0.3952,0.3569,0.004,0.018000000000000002,-0.058
1670355154.159983,-9.404,-0.002,4.376,-0.6416000000000001,-0.39490000000000003,0.3552,0.007,0.022,-0.058
1670355154.199983,-9.387,-0.073,4.355,-0.6433,-0.3929,0.3557,-0.001,0.013000000000000001,-0.042
1670355154.239983,-9.427,0.018000000000000002,4.4,-0.6442,-0.39330000000000004,0.3548,0.002,0.012,-0.051000000000000004
1670355154.279983,-9.42,0.027,4.43,-0.6431,-0.3934,0.35450000000000004,0.012,0.009000000000000001,-0.059000000000000004
1670355154.319983,-9.442,-0.035,4.432,-0.6424000000000001,-0.3947,0.35350000000000004,0.01,0.014,-0.051000000000000004
1670355154.359983,-9.421,-0.065,4.405,-0.6416000000000001,-0.3921,0.3568,-0.006,0.024,-0.043000000000000003
1670355154.399982,-9.438,0.058,4.428,-0.6436000000000001,-0.3932,0.3554,0.002,0.029,-0.043000000000000003
1670355154.439982,-9.458,0.035,4.385,-0.6452,-0.39330000000000004,0.3537,0.012,0.03,-0.059000000000000004
1670355154.479982,-9.41,-0.029,4.402,-0.6416000000000001,-0.3947,0.35400000000000004,0.011,0.023,-0.056
1670355154.5199819,-9.397,-0.016,4.408,-0.6414000000000001,-0.39390000000000003,0.3536,0.0,0.015,-0.042
1670355154.559982,-9.439,0.031,4.388,-0.6449,-0.392,0.3537,0.0,0.013000000000000001,-0.046
1670355154.599982,-9.425,-0.013000000000000001,4.393,-0.643,-0.3947,0.3564,0.009000000000000001,0.014,-0.06
1670355154.639982,-9.444,-0.067,4.43,-0.6432,-0.39330000000000004,0.3569,0.001,0.014,-0.053
1670355154.679982,-9.414,-0.02,4.4190000000000005,-0.6451,-0.394,0.3544,-0.002,0.013000000000000001,-0.041
1670355154.719982,-9.395,0.001,4.416,-0.6447,-0.39440000000000003,0.3556,0.0,0.019,-0.047
1670355154.7599819,-9.424,0.002,4.399,-0.6424000000000001,-0.393,0.3552,0.013000000000000001,0.015,-0.052000000000000005
1670355154.799982,-9.423,-0.01,4.415,-0.6493,-0.39330000000000004,0.3548,0.016,0.02,-0.049
1670355154.839982,-9.417,-0.004,4.409,-0.6415000000000001,-0.3946,0.3548,0.007,0.019,-0.048
1670355154.879982,-9.41,-0.007,4.4270000000000005,-0.6405000000000001,-0.39540000000000003,0.3564,0.005,0.019,-0.042
1670355154.919982,-9.433,0.001,4.3870000000000005,-0.6443,-0.395,0.3553,0.003,0.023,-0.05
1670355154.959982,-9.439,0.0,4.372,-0.6454000000000001,-0.3947,0.3562,0.008,0.026000000000000002,-0.044
1670355154.9999819,-9.427,0.005,4.376,-0.6411,-0.3946,0.3573,-0.006,0.027,-0.035
1670355155.039982,-9.428,-0.005,4.381,-0.6422,-0.3935,0.35400000000000004,0.008,0.015,-0.043000000000000003
1670355155.079982,-9.427,-0.02,4.401,-0.6436000000000001,-0.3955,0.35600000000000004,0.017,0.009000000000000001,-0.067
1670355155.119982,-9.439,-0.045,4.434,-0.6447,-0.39540000000000003,0.37,0.009000000000000001,0.002,-0.053
1670355155.159982,-9.469,0.096,4.414,-0.6451,-0.39490000000000003,0.3628,0.008,0.002,-0.026000000000000002
1670355155.199982,-9.469,-0.04,4.424,-0.6451,-0.39490000000000003,0.33680000000000004,0.018000000000000002,0.018000000000000002,-0.052000000000000005
1670355155.239982,-9.414,-0.04,4.424,-0.646,-0.3975,0.33680000000000004,0.011,0.014,-0.059000000000000004
1670355155.279982,-9.359,0.007,4.39,-0.6419,-0.3936,0.3624,0.0,0.012,-0.043000000000000003
1670355155.319982,-9.404,0.0,4.422,-0.645,-0.3951,0.3504,0.003,0.009000000000000001,-0.051000000000000004
1670355155.359982,-9.431000000000001,0.026000000000000002,4.458,-0.6461,-0.3962,0.36200000000000004,0.008,0.017,-0.063
1670355155.399982,-9.43,-0.031,4.458,-0.6411,-0.3956,0.3554,0.0,0.017,-0.056
1670355155.439981,-9.364,-0.041,4.449,-0.6446000000000001,-0.3945,0.3546,-0.013000000000000001,0.024,-0.047
1670355155.479981,-9.39,0.055,4.418,-0.6444000000000001,-0.39690000000000003,0.35760000000000003,0.0,0.033,-0.044
1670355155.519981,-9.429,-0.053,4.4110000000000005,-0.6431,-0.39480000000000004,0.3556,0.014,0.035,-0.057
1670355155.5599809,-9.411,0.0,4.4190000000000005,-0.6442,-0.3926,0.36100000000000004,0.001,0.027,-0.046
1670355155.599981,-9.405,-0.04,4.406,-0.645,-0.3932,0.3542,-0.006,0.023,-0.035
1670355155.639981,-9.414,0.013000000000000001,4.408,-0.6443,-0.39430000000000004,0.3559,0.004,0.018000000000000002,-0.047
1670355155.679981,-9.422,0.028,4.426,-0.6444000000000001,-0.3942,0.35450000000000004,0.012,0.017,-0.058
1670355155.719981,-9.437,-0.035,4.421,-0.6457,-0.39580000000000004,0.3542,0.005,0.014,-0.055
1670355155.759981,-9.414,-0.018000000000000002,4.404,-0.6416000000000001,-0.3941,0.35700000000000004,0.0,0.017,-0.046
1670355155.7999809,-9.433,-0.005,4.41,-0.6465000000000001,-0.39680000000000004,0.3662,-0.002,0.019,-0.048
1670355155.839981,-9.396,0.017,4.418,-0.6507000000000001,-0.3952,0.3554,0.01,0.015,-0.055
1670355155.879981,-9.41,0.005,4.456,-0.6453,-0.39390000000000003,0.3531,0.006,0.016,-0.055
1670355155.919981,-9.42,-0.008,4.413,-0.6433,-0.39440000000000003,0.3593,0.004,0.018000000000000002,-0.052000000000000005
1670355155.959981,-9.412,0.013000000000000001,4.457,-0.6435000000000001,-0.3941,0.35400000000000004,0.007,0.022,-0.055
1670355155.999981,-9.42,-0.002,4.404,-0.6454000000000001,-0.39580000000000004,0.3563,0.006,0.024,-0.053
1670355156.039981,-9.409,-0.015,4.439,-0.6418,-0.395,0.35900000000000004,0.004,0.026000000000000002,-0.054
1670355156.079981,-9.4,-0.001,4.44,-0.6439,-0.3961,0.35450000000000004,-0.006,0.024,-0.054
1670355156.119981,-9.408,-0.026000000000000002,4.388,-0.6469,-0.3965,0.3543,-0.003,0.02,-0.048
1670355156.159981,-9.477,-0.024,4.388,-0.6436000000000001,-0.39580000000000004,0.3552,-0.006,0.025,-0.042
1670355156.199981,-9.486,0.025,4.431,-0.6451,-0.39580000000000004,0.35500000000000004,0.004,0.032,-0.052000000000000005
1670355156.239981,-9.352,-0.012,4.382,-0.6421,-0.3924,0.3564,0.001,0.025,-0.053
1670355156.279981,-9.394,-0.026000000000000002,4.364,-0.6457,-0.3956,0.3584,0.006,0.014,-0.034
1670355156.319981,-9.44,-0.008,4.4270000000000005,-0.6429,-0.39390000000000003,0.3529,0.01,0.005,-0.048
1670355156.359981,-9.428,0.014,4.393,-0.643,-0.39690000000000003,0.3527,0.019,0.01,-0.054
1670355156.399981,-9.387,-0.04,4.409,-0.6441,-0.396,0.3562,0.01,0.013000000000000001,-0.058
1670355156.439981,-9.379,-0.001,4.405,-0.6427,-0.3947,0.3549,0.001,0.01,-0.035
1670355156.399981,-9.442,0.013000000000000001,4.431,-0.645,-0.3951,0.35450000000000004,0.011,0.024,-0.049
1670355156.439981,-9.425,0.02,4.418,-0.6447,-0.393,0.3541,0.012,0.029,-0.057
1670355156.47998,-9.377,-0.022,4.3870000000000005,-0.6424000000000001,-0.3916,0.3543,0.004,0.02,-0.045
1670355156.51998,-9.411,0.014,4.393,-0.6424000000000001,-0.3936,0.3542,0.0,0.019,-0.054
1670355156.55998,-9.445,0.034,4.436,-0.6447,-0.3924,0.3532,0.01,0.018000000000000002,-0.06
1670355156.5999799,-9.413,-0.01,4.408,-0.6439,-0.39440000000000003,0.35750000000000004,0.022,0.017,-0.063
1670355156.63998,-9.406,-0.025,4.422,-0.6436000000000001,-0.396,0.3562,0.002,0.022,-0.048
1670355156.67998,-9.409,-0.002,4.408,-0.6434000000000001,-0.3935,0.3553,-0.001,0.022,-0.049
1670355156.71998,-9.416,0.016,4.44,-0.6438,-0.39580000000000004,0.3546,0.004,0.022,-0.056
1670355156.75998,-9.418000000000001,0.014,4.402,-0.6509,-0.39790000000000003,0.35660000000000003,0.009000000000000001,0.023,-0.053
1670355156.79998,-9.422,0.002,4.455,-0.6486000000000001,-0.39490000000000003,0.35550000000000004,0.006,0.019,-0.053
1670355156.83998,-9.42,-0.008,4.374,-0.644,-0.3947,0.3574,0.006,0.015,-0.049
1670355156.87998,-9.436,0.01,4.442,-0.6449,-0.3945,0.35500000000000004,0.007,0.018000000000000002,-0.052000000000000005
1670355156.91998,-9.427,0.019,4.396,-0.6458,-0.39630000000000004,0.35710000000000003,0.008,0.017,-0.051000000000000004
1670355156.95998,-9.412,-0.045,4.405,-0.6435000000000001,-0.3936,0.35710000000000003,0.001,0.018000000000000002,-0.054
1670355156.99998,-9.438,-0.02,4.402,-0.6417,-0.3957,0.3573,0.002,0.012,-0.051000000000000004
1670355157.03998,-9.486,0.092,4.461,-0.6466000000000001,-0.3967,0.35550000000000004,0.018000000000000002,0.014,-0.055
1670355157.07998,-9.423,-0.05,4.399,-0.6402,-0.3966,0.3554,0.008,0.027,-0.06
1670355157.11998,-9.382,-0.037,4.381,-0.6457,-0.396,0.3541,-0.002,0.017,-0.052000000000000005
1670355157.15998,-9.407,0.025,4.388,-0.6411,-0.3952,0.3543,-0.012,0.016,-0.044
1670355157.19998,-9.433,0.035,4.4430000000000005,-0.6426000000000001,-0.395,0.35550000000000004,0.003,0.012,-0.051000000000000004
1670355157.23998,-9.434000000000001,-0.012,4.397,-0.6441,-0.3935,0.35660000000000003,0.014,0.014,-0.057
1670355157.27998,-9.421,-0.061,4.41,-0.6452,-0.39890000000000003,0.3446,0.007,0.01,-0.054
1670355157.31998,-9.441,0.078,4.458,-0.643,-0.397,0.35900000000000004,0.0,0.011,-0.042
1670355157.35998,-9.441,0.013000000000000001,4.43,-0.643,-0.397,0.3619,0.015,0.014,-0.043000000000000003
1670355157.39998,-9.448,0.013000000000000001,4.43,-0.6436000000000001,-0.39530000000000004,0.3619,0.026000000000000002,0.023,-0.062
1670355157.43998,-9.413,-0.013000000000000001,4.408,-0.6447,-0.3935,0.3322,0.012,0.007,-0.047
1670355157.47998,-9.379,-0.016,4.431,-0.6482,-0.3967,0.3511,0.003,0.006,-0.046
1670355157.519979,-9.418000000000001,0.028,4.392,-0.646,-0.3956,0.37560000000000004,0.012,0.011,-0.053
1670355157.559979,-9.412,0.013000000000000001,4.455,-0.6458,-0.396,0.35660000000000003,0.016,0.004,-0.056
1670355157.599979,-9.405,-0.04,4.44,-0.6432,-0.39430000000000004,0.3568,0.0,0.013000000000000001,-0.049
1670355157.639979,-9.4,-0.017,4.432,-0.6535000000000001,-0.40030000000000004,0.3643,-0.002,0.017,-0.043000000000000003
1670355157.679979,-9.399000000000001,0.02,4.477,-0.6449,-0.3942,0.35700000000000004,0.008,0.013000000000000001,-0.05
1670355157.719979,-9.397,0.006,4.438,-0.6527000000000001,-0.39640000000000003,0.3579,0.013000000000000001,0.018000000000000002,-0.058
1670355157.759979,-9.408,-0.007,4.434,-0.6423,-0.3925,0.35710000000000003,0.009000000000000001,0.019,-0.058
1670355157.799979,-9.422,-0.014,4.428,-0.648,-0.397,0.36410000000000003,0.002,0.017,-0.044
1670355157.839979,-9.393,0.024,4.42,-0.6474000000000001,-0.399,0.36150000000000004,0.003,0.024,-0.042
1670355157.879979,-9.4,-0.001,4.476,-0.6435000000000001,-0.3936,0.35600000000000004,0.006,0.019,-0.056
1670355157.919979,-9.439,-0.043000000000000003,4.457,-0.6434000000000001,-0.39540000000000003,0.35960000000000003,-0.001,0.014,-0.044
1670355157.959979,-9.392,-0.001,4.482,-0.6447,-0.39640000000000003,0.35850000000000004,-0.006,0.018000000000000002,-0.044
1670355157.999979,-9.4,0.092,4.445,-0.6421,-0.39280000000000004,0.35710000000000003,0.004,0.022,-0.044
1670355158.039979,-9.42,-0.079,4.409,-0.6427,-0.39390000000000003,0.3572,0.007,0.021,-0.055
1670355158.079979,-9.399000000000001,0.027,4.404,-0.6453,-0.3967,0.3562,0.0,0.02,-0.044
1670355158.119979,-9.388,-0.011,4.4030000000000005,-0.6414000000000001,-0.3952,0.3559,-0.003,0.011,-0.046
1670355158.159979,-9.403,0.047,4.418,-0.6456000000000001,-0.39740000000000003,0.35710000000000003,0.012,0.015,-0.05
1670355158.199979,-9.431000000000001,-0.012,4.4430000000000005,-0.6424000000000001,-0.39440000000000003,0.35900000000000004,0.013000000000000001,0.016,-0.061
1670355158.239979,-9.393,-0.052000000000000005,4.471,-0.6438,-0.39530000000000004,0.3563,0.004,0.017,-0.054
1670355158.279979,-9.4,0.021,4.484,-0.6457,-0.3927,0.3557,0.002,0.013000000000000001,-0.041
1670355158.319979,-9.415000000000001,-0.043000000000000003,4.424,-0.6465000000000001,-0.3966,0.35950000000000004,0.007,0.022,-0.047
1670355158.359979,-9.415000000000001,0.023,4.437,-0.6449,-0.39390000000000003,0.3582,0.012,0.032,-0.066
1670355158.399979,-9.387,-0.021,4.445,-0.6426000000000001,-0.3961,0.3533,0.002,0.023,-0.041
1670355158.439979,-9.402000000000001,-0.007,4.446,-0.643,-0.39640000000000003,0.35700000000000004,-0.001,0.029,-0.041
1670355158.479979,-9.422,0.023,4.418,-0.6406000000000001,-0.3952,0.35450000000000004,0.007,0.018000000000000002,-0.052000000000000005
1670355158.519979,-9.408,-0.01,4.4030000000000005,-0.6433,-0.39380000000000004,0.3574,0.005,0.017,-0.058
1670355158.559978,-9.393,-0.026000000000000002,4.39,-0.6445000000000001,-0.39490000000000003,0.3554,-0.005,0.013000000000000001,-0.051000000000000004
1670355158.599978,-9.378,-0.002,4.412,-0.6447,-0.3971,0.3582,-0.002,0.018000000000000002,-0.053
1670355158.639978,-9.425,0.012,4.412,-0.6436000000000001,-0.3942,0.3577,0.002,0.012,-0.052000000000000005
1670355158.679978,-9.396,-0.015,4.436,-0.6459,-0.39440000000000003,0.3548,0.008,0.013000000000000001,-0.052000000000000005
1670355158.719978,-9.387,0.016,4.422,-0.644,-0.3919,0.3579,0.002,0.015,-0.052000000000000005
1670355158.759978,-9.422,-0.018000000000000002,4.4510000000000005,-0.6426000000000001,-0.3927,0.35600000000000004,0.007,0.015,-0.051000000000000004
1670355158.799978,-9.413,0.023,4.434,-0.6449,-0.39430000000000004,0.3559,0.003,0.019,-0.05
1670355158.839978,-9.414,0.017,4.413,-0.6438,-0.3952,0.3588,0.01,0.017,-0.05
1670355158.879978,-9.376,-0.026000000000000002,4.421,-0.6423,-0.39540000000000003,0.35950000000000004,0.007,0.019,-0.051000000000000004
1670355158.919978,-9.444,-0.026000000000000002,4.4430000000000005,-0.6444000000000001,-0.394,0.3579,0.003,0.018000000000000002,-0.046
1670355158.959978,-9.469,0.049,4.452,-0.6431,-0.3966,0.3568,0.007,0.025,-0.047
1670355158.999978,-9.362,-0.031,4.455,-0.6438,-0.3937,0.3573,0.0,0.02,-0.054
1670355159.039978,-9.374,0.0,4.351,-0.6441,-0.3962,0.3589,-0.001,0.017,-0.055
1670355159.079978,-9.406,0.013000000000000001,4.425,-0.6462,-0.39630000000000004,0.3537,0.001,0.008,-0.049
1670355159.119978,-9.429,0.018000000000000002,4.476,-0.6431,-0.3941,0.3556,0.012,0.009000000000000001,-0.054
1670355159.159978,-9.425,-0.045,4.487,-0.6446000000000001,-0.39530000000000004,0.35700000000000004,0.009000000000000001,0.01,-0.059000000000000004
1670355159.199978,-9.428,-0.047,4.4270000000000005,-0.6449,-0.395,0.3584,-0.002,0.008,-0.05
1670355159.239978,-9.437,0.062,4.498,-0.6438,-0.39440000000000003,0.3574,0.007,0.013000000000000001,-0.043000000000000003
1670355159.279978,-9.422,-0.007,4.471,-0.6438,-0.3945,0.3609,0.01,0.025,-0.058
1670355159.319978,-9.369,-0.058,4.43,-0.6444000000000001,-0.39440000000000003,0.3568,0.009000000000000001,0.024,-0.052000000000000005
1670355159.359978,-9.401,-0.004,4.433,-0.6433,-0.3935,0.35850000000000004,-0.009000000000000001,0.018000000000000002,-0.04
1670355159.399978,-9.42,0.029,4.461,-0.6442,-0.39530000000000004,0.35960000000000003,0.002,0.018000000000000002,-0.044
1670355159.439978,-9.385,-0.019,4.413,-0.6421,-0.3977,0.3577,0.011,0.017,-0.058
1670355159.4799778,-9.423,-0.045,4.478,-0.643,-0.3977,0.3637,0.003,0.016,-0.054
1670355159.519978,-9.421,-0.015,4.424,-0.648,-0.3946,0.3544,-0.001,0.016,-0.041
1670355159.559978,-9.421,-0.003,4.4670000000000005,-0.648,-0.396,0.3534,0.001,0.02,-0.045
1670355159.599977,-9.421,-0.003,4.472,-0.6489,-0.396,0.3534,0.012,0.023,-0.053
1670355159.639977,-9.395,-0.008,4.472,-0.6453,-0.3946,0.3554,0.011,0.015,-0.052000000000000005
1670355159.679977,-9.4,-0.037,4.446,-0.6449,-0.39440000000000003,0.3795,0.012,0.01,-0.042
1670355159.719977,-9.427,0.042,4.412,-0.6473,-0.3981,0.3594,0.011,0.022,-0.053
1670355159.759977,-9.404,-0.014,4.4270000000000005,-0.6461,-0.395,0.3554,0.01,0.017,-0.055
1670355159.799977,-9.41,-0.013000000000000001,4.448,-0.6546000000000001,-0.3996,0.35600000000000004,0.008,0.02,-0.049
1670355159.839977,-9.384,0.039,4.5,-0.6461,-0.393,0.35760000000000003,0.004,0.022,-0.044
1670355159.879977,-9.405,0.028,4.433,-0.6484,-0.39730000000000004,0.3577,0.009000000000000001,0.027,-0.048
1670355159.919977,-9.427,-0.041,4.4030000000000005,-0.6462,-0.39640000000000003,0.3599,0.008,0.026000000000000002,-0.048
1670355159.959977,-9.354000000000001,0.041,4.428,-0.6471,-0.39440000000000003,0.35710000000000003,0.004,0.02,-0.042
1670355159.999977,-9.408,0.002,4.392,-0.6482,-0.39540000000000003,0.35650000000000004,0.002,0.025,-0.045
1670355160.039977,-9.406,0.019,4.439,-0.6458,-0.3977,0.3573,0.012,0.012,-0.059000000000000004
1670355160.079977,-9.433,-0.007,4.446,-0.6459,-0.3961,0.35550000000000004,0.01,0.023,-0.051000000000000004
1670355160.119977,-9.375,-0.05,4.416,-0.6444000000000001,-0.39430000000000004,0.3551,-0.004,0.02,-0.048
1670355160.159977,-9.369,0.042,4.46,-0.6452,-0.3947,0.3567,0.008,0.02,-0.039
1670355160.199977,-9.423,-0.025,4.479,-0.6459,-0.39640000000000003,0.35600000000000004,0.023,0.028,-0.057
1670355160.239977,-9.4,0.044,4.438,-0.644,-0.39680000000000004,0.3563,0.018000000000000002,0.023,-0.057
1670355160.2799768,-9.382,-0.003,4.414,-0.6447,-0.3947,0.3551,0.0,0.015,-0.045
1670355160.319977,-9.415000000000001,0.028,4.407,-0.644,-0.39440000000000003,0.3573,0.0,0.013000000000000001,-0.051000000000000004
1670355160.359977,-9.433,0.035,4.44,-0.646,-0.39690000000000003,0.35550000000000004,0.015,0.009000000000000001,-0.06
1670355160.399977,-9.425,-0.016,4.4350000000000005,-0.6451,-0.39680000000000004,0.3543,0.006,0.013000000000000001,-0.052000000000000005
1670355160.439977,-9.402000000000001,-0.007,4.4190000000000005,-0.6432,-0.39580000000000004,0.3554,-0.006,0.017,-0.053
1670355160.479977,-9.412,0.003,4.4510000000000005,-0.6455000000000001,-0.39440000000000003,0.35400000000000004,-0.006,0.016,-0.051000000000000004
1670355160.5199769,-9.394,0.029,4.476,-0.6431,-0.395,0.35710000000000003,0.004,0.017,-0.056
1670355160.559977,-9.38,0.0,4.437,-0.6458,-0.3952,0.3577,0.009000000000000001,0.022,-0.056
1670355160.599977,-9.406,-0.008,4.456,-0.646,-0.3951,0.3568,0.003,0.018000000000000002,-0.046
1670355160.639977,-9.391,0.003,4.405,-0.645,-0.3961,0.3567,0.002,0.024,-0.049
1670355160.679977,-9.387,0.029,4.471,-0.6406000000000001,-0.3952,0.35600000000000004,0.006,0.024,-0.054
1670355160.719976,-9.39,0.004,4.409,-0.6457,-0.39790000000000003,0.3583,0.004,0.02,-0.062
1670355160.759976,-9.396,-0.043000000000000003,4.424,-0.6441,-0.3961,0.35650000000000004,-0.002,0.018000000000000002,-0.053
1670355160.799976,-9.428,-0.022,4.41,-0.6427,-0.39580000000000004,0.3594,-0.006,0.012,-0.049
1670355160.839976,-9.475,0.129,4.496,-0.6457,-0.39690000000000003,0.3556,0.014,0.01,-0.058
1670355160.879976,-9.376,-0.055,4.4110000000000005,-0.6492,-0.39530000000000004,0.3574,0.01,0.021,-0.063
1670355160.919976,-9.351,-0.016,4.408,-0.6459,-0.39580000000000004,0.35700000000000004,0.002,0.015,-0.05
1670355160.959976,-9.416,0.003,4.468,-0.6447,-0.3961,0.3604,0.0,0.008,-0.045
1670355160.999976,-9.408,0.02,4.479,-0.6472,-0.3947,0.3584,0.013000000000000001,0.007,-0.051000000000000004
1670355161.039976,-9.411,-0.034,4.49,-0.6438,-0.39430000000000004,0.35750000000000004,0.01,0.017,-0.059000000000000004
1670355161.0799758,-9.397,-0.052000000000000005,4.47,-0.6463,-0.39440000000000003,0.35810000000000003,-0.001,0.016,-0.052000000000000005
1670355161.119976,-9.421,0.101,4.4750000000000005,-0.6452,-0.39640000000000003,0.3583,0.005,0.027,-0.047
1670355161.159976,-9.423,-0.014,4.454,-0.6445000000000001,-0.3937,0.3551,0.017,0.032,-0.051000000000000004
1670355161.199976,-9.386000000000001,-0.025,4.425,-0.6455000000000001,-0.3957,0.35650000000000004,0.007,0.03,-0.051000000000000004
1670355161.239976,-9.387,0.009000000000000001,4.439,-0.6447,-0.3985,0.35810000000000003,-0.006,0.024,-0.038
1670355161.279976,-9.399000000000001,0.048,4.439,-0.6449,-0.3961,0.3572,0.001,0.014,-0.048
1670355161.3199759,-9.424,0.008,4.416,-0.6466000000000001,-0.3941,0.3588,0.009000000000000001,0.01,-0.059000000000000004
1670355161.359976,-9.39,-0.02,4.444,-0.6446000000000001,-0.395,0.3549,0.001,0.021,-0.056
1670355161.399976,-9.413,-0.047,4.4510000000000005,-0.6452,-0.39480000000000004,0.3578,-0.007,0.017,-0.049
1670355161.439976,-9.397,0.014,4.44,-0.643,-0.3952,0.3588,-0.007,0.025,-0.051000000000000004
1670355161.479976,-9.372,0.011,4.485,-0.6446000000000001,-0.3952,0.3567,0.006,0.019,-0.056
1670355161.519976,-9.382,-0.028,4.461,-0.6448,-0.39630000000000004,0.3593,0.005,0.016,-0.051000000000000004
1670355161.5599759,-9.388,-0.005,4.455,-0.6441,-0.3967,0.3574,0.007,0.018000000000000002,-0.042
1670355161.599976,-9.394,0.008,4.452,-0.6446000000000001,-0.3957,0.3557,0.005,0.022,-0.049
1670355161.639976,-9.382,0.007,4.396,-0.6443,-0.3947,0.3549,0.01,0.025,-0.049
1670355161.679976,-9.407,-0.008,4.441,-0.6431,-0.39540000000000003,0.3577,0.009000000000000001,0.019,-0.053
1670355161.719976,-9.374,0.008,4.434,-0.6468,-0.39630000000000004,0.36010000000000003,0.009000000000000001,0.026000000000000002,-0.052000000000000005
1670355161.759975,-9.347,0.023,4.448,-0.648,-0.39690000000000003,0.3714,0.0,0.017,-0.044
1670355161.799975,-9.347,0.023,4.437,-0.648,-0.39690000000000003,0.3714,-0.012,0.021,-0.047
1670355161.839975,-9.436,0.033,4.437,-0.6457,-0.39390000000000003,0.3673,0.004,0.025,-0.046
1670355161.879975,-9.398,-0.032,4.449,-0.653,-0.4035,0.3659,0.005,0.021,-0.058
1670355161.919975,-9.296,0.009000000000000001,4.431,-0.6488,-0.3952,0.35810000000000003,0.0,0.017,-0.054
1670355161.959975,-9.469,-0.059000000000000004,4.495,-0.6518,-0.3975,0.3634,-0.01,0.028,-0.05
1670355161.999975,-9.41,-0.03,4.55,-0.6461,-0.3947,0.35700000000000004,-0.015,0.034,-0.05
1670355162.039975,-9.405,0.022,4.425,-0.6438,-0.39580000000000004,0.3577,-0.007,0.046,-0.049
1670355162.079975,-9.389,-0.003,4.399,-0.6465000000000001,-0.3945,0.3567,0.0,0.047,-0.053
1670355162.1199749,-9.379,0.027,4.361,-0.6454000000000001,-0.39480000000000004,0.3579,0.01,0.033,-0.046
1670355162.159975,-9.47,-0.037,4.376,-0.6446000000000001,-0.393,0.35700000000000004,0.016,0.023,-0.049
1670355162.199975,-9.412,0.017,4.32,-0.6422,-0.39640000000000003,0.35710000000000003,0.017,0.013000000000000001,-0.042
1670355162.239975,-9.386000000000001,-0.013000000000000001,4.345,-0.6434000000000001,-0.3961,0.3561,0.009000000000000001,-0.011,-0.041
1670355162.279975,-9.412,0.002,4.434,-0.6414000000000001,-0.39590000000000003,0.3569,0.02,-0.023,-0.06
1670355162.319975,-9.399000000000001,0.027,4.434,-0.6423,-0.39580000000000004,0.3562,0.025,-0.027,-0.07100000000000001
1670355162.3599749,-9.427,-0.037,4.485,-0.6441,-0.3941,0.36160000000000003,0.023,-0.016,-0.065
1670355162.399975,-9.384,-0.029,4.516,-0.6452,-0.39630000000000004,0.35850000000000004,0.005,0.003,-0.044
1670355162.439975,-9.384,0.0,4.489,-0.6451,-0.3961,0.3584,0.01,0.011,-0.043000000000000003
1670355162.479975,-9.385,0.022,4.5600000000000005,-0.6453,-0.394,0.3574,0.014,0.025,-0.046
1670355162.519975,-9.391,0.007,4.553,-0.6426000000000001,-0.39730000000000004,0.3573,0.014,0.021,-0.049
1670355162.559975,-9.372,0.049,4.476,-0.6452,-0.39680000000000004,0.35700000000000004,0.014,0.024,-0.048
1670355162.5999749,-9.396,0.026000000000000002,4.458,-0.6449,-0.39490000000000003,0.3563,0.011,0.029,-0.049
1670355162.639975,-9.405,0.04,4.441,-0.646,-0.3986,0.35760000000000003,0.001,0.036000000000000004,-0.048
1670355162.679975,-9.370000000000001,0.038,4.429,-0.6472,-0.3975,0.3556,-0.007,0.027,-0.051000000000000004
1670355162.719975,-9.377,-0.031,4.437,-0.6443,-0.3934,0.3574,-0.006,0.018000000000000002,-0.051000000000000004
1670355162.759975,-9.433,0.011,4.472,-0.6458,-0.396,0.35810000000000003,-0.004,0.023,-0.051000000000000004
1670355162.799974,-9.449,0.08,4.454,-0.6468,-0.39680000000000004,0.35600000000000004,0.002,0.019,-0.047
1670355162.839974,-9.365,-0.039,4.425,-0.646,-0.3956,0.35700000000000004,0.01,0.016,-0.05
1670355162.879974,-9.38,0.012,4.405,-0.6449,-0.3961,0.35760000000000003,0.01,0.011,-0.05
1670355162.9199739,-9.412,0.052000000000000005,4.466,-0.6441,-0.39580000000000004,0.3537,0.011,0.013000000000000001,-0.048
1670355162.959974,-9.401,0.038,4.486,-0.6428,-0.39430000000000004,0.3582,0.016,0.013000000000000001,-0.058
1670355162.999974,-9.408,0.01,4.48,-0.6482,-0.39690000000000003,0.35710000000000003,0.008,0.007,-0.052000000000000005
1670355163.039974,-9.409,-0.011,4.463,-0.6451,-0.3966,0.35650000000000004,-0.004,0.018000000000000002,-0.049
1670355163.079974,-9.403,0.121,4.488,-0.6448,-0.39640000000000003,0.3559,0.003,0.019,-0.048
1670355163.119974,-9.423,0.026000000000000002,4.428,-0.6444000000000001,-0.39530000000000004,0.35810000000000003,0.013000000000000001,0.026000000000000002,-0.056
1670355163.1599739,-9.357,0.021,4.441,-0.6435000000000001,-0.398,0.35760000000000003,0.009000000000000001,0.029,-0.042
1670355163.199974,-9.389,0.027,4.465,-0.6445000000000001,-0.39630000000000004,0.3583,-0.005,0.016,-0.04
1670355163.239974,-9.408,0.07200000000000001,4.429,-0.6453,-0.3971,0.3592,0.0,0.008,-0.056
1670355163.279974,-9.421,0.02,4.449,-0.6459,-0.39590000000000003,0.3557,0.012,0.011,-0.056
1670355163.319974,-9.378,0.0,4.448,-0.6441,-0.3977,0.3582,0.002,0.013000000000000001,-0.045
1670355163.359974,-9.405,0.001,4.463,-0.6433,-0.39680000000000004,0.3584,-0.005,0.012,-0.042
1670355163.3999739,-9.399000000000001,0.063,4.502,-0.6445000000000001,-0.3972,0.36010000000000003,0.01,0.011,-0.05
1670355163.439974,-9.38,0.017,4.492,-0.6427,-0.39630000000000004,0.35900000000000004,0.021,0.017,-0.055
1670355163.479974,-9.399000000000001,0.025,4.455,-0.6447,-0.39730000000000004,0.3588,0.015,0.013000000000000001,-0.046
1670355163.519974,-9.407,0.046,4.479,-0.6446000000000001,-0.3966,0.3552,0.012,0.014,-0.044
1670355163.559974,-9.411,0.063,4.464,-0.6422,-0.3991,0.3589,0.018000000000000002,0.02,-0.047
1670355163.599974,-9.352,0.07,4.457,-0.6438,-0.39630000000000004,0.3579,0.029,0.031,-0.065
1670355163.6399739,-9.389,-0.032,4.468,-0.6446000000000001,-0.3972,0.3557,0.01,0.014,-0.058
1670355163.679974,-9.357,0.023,4.4590000000000005,-0.6466000000000001,-0.3975,0.3583,-0.014,0.009000000000000001,-0.036000000000000004
1670355163.719974,-9.412,0.134,4.438,-0.643,-0.3955,0.3609,-0.007,0.007,-0.038
1670355163.759974,-9.379,-0.011,4.449,-0.6468,-0.398,0.35860000000000003,0.01,0.021,-0.06
1670355163.799974,-9.345,0.048,4.394,-0.6441,-0.39430000000000004,0.3559,0.002,0.017,-0.064
1670355163.839973,-9.381,0.008,4.51,-0.6428,-0.39430000000000004,0.35750000000000004,-0.006,0.018000000000000002,-0.048
1670355163.879973,-9.376,0.046,4.473,-0.6455000000000001,-0.39580000000000004,0.3592,-0.005,0.016,-0.052000000000000005
1670355163.919973,-9.42,0.016,4.503,-0.6559,-0.39890000000000003,0.3622,0.009000000000000001,0.014,-0.064
1670355163.9599729,-9.352,-0.027,4.484,-0.6449,-0.3977,0.3773,0.004,0.015,-0.055
1670355163.999973,-9.352,0.053,4.463,-0.6449,-0.3967,0.36460000000000004,-0.002,0.028,-0.051000000000000004
1670355164.039973,-9.335,0.053,4.463,-0.6516000000000001,-0.3967,0.36460000000000004,0.007,0.028,-0.044
1670355164.079973,-9.402000000000001,-0.017,4.454,-0.6464000000000001,-0.3971,0.3619,0.013000000000000001,0.029,-0.053
1670355164.119973,-9.391,0.055,4.487,-0.6462,-0.3972,0.37,0.007,0.015,-0.045
1670355164.159973,-9.370000000000001,0.003,4.46,-0.6475000000000001,-0.3955,0.37010000000000004,0.0,0.013000000000000001,-0.04
1670355164.1999729,-9.383000000000001,0.064,4.449,-0.6458,-0.3967,0.3507,0.002,0.009000000000000001,-0.051000000000000004
1670355164.239973,-9.381,0.065,4.5,-0.6462,-0.39680000000000004,0.3593,0.008,0.01,-0.067
1670355164.279973,-9.372,0.007,4.445,-0.6455000000000001,-0.3965,0.3603,-0.002,0.01,-0.05
1670355164.319973,-9.387,0.015,4.498,-0.6488,-0.3956,0.3569,-0.009000000000000001,0.012,-0.053
1670355164.359973,-9.370000000000001,0.011,4.516,-0.6438,-0.3952,0.3598,-0.002,0.014,-0.052000000000000005
1670355164.399973,-9.381,0.043000000000000003,4.497,-0.6468,-0.3936,0.3617,0.016,0.017,-0.057
1670355164.4399729,-9.361,0.013000000000000001,4.522,-0.6444000000000001,-0.3982,0.35710000000000003,0.012,0.012,-0.05
1670355164.479973,-9.348,0.027,4.437,-0.6408,-0.39590000000000003,0.35960000000000003,0.01,0.02,-0.05
1670355164.519973,-9.373,0.027,4.492,-0.6441,-0.3971,0.35850000000000004,0.014,0.019,-0.047
1670355164.559973,-9.370000000000001,0.037,4.484,-0.6451,-0.3952,0.3577,0.013000000000000001,0.023,-0.054
1670355164.599973,-9.396,0.028,4.479,-0.6444000000000001,-0.39780000000000004,0.3602,0.007,0.022,-0.051000000000000004
1670355164.639973,-9.355,-0.012,4.482,-0.6449,-0.3956,0.35710000000000003,0.005,0.011,-0.046
1670355164.679973,-9.388,0.005,4.47,-0.6518,-0.3996,0.3618,-0.001,0.014,-0.035
1670355164.719973,-9.444,0.125,4.503,-0.6446000000000001,-0.39780000000000004,0.35700000000000004,0.018000000000000002,0.025,-0.052000000000000005
1670355164.759973,-9.354000000000001,-0.023,4.462,-0.6449,-0.3957,0.3582,0.003,0.023,-0.058
1670355164.799973,-9.359,0.008,4.439,-0.6472,-0.3961,0.36110000000000003,0.0,0.021,-0.039
1670355164.839973,-9.397,0.056,4.526,-0.6458,-0.3961,0.3577,-0.002,0.021,-0.047
1670355164.879972,-9.388,0.057,4.516,-0.6458,-0.39640000000000003,0.35800000000000004,0.009000000000000001,0.018000000000000002,-0.058
1670355164.919972,-9.409,-0.006,4.463,-0.6457,-0.3977,0.35810000000000003,0.002,0.02,-0.053
1670355164.959972,-9.382,-0.013000000000000001,4.482,-0.6444000000000001,-0.39740000000000003,0.3568,0.004,0.025,-0.051000000000000004
1670355164.9999719,-9.387,0.11800000000000001,4.498,-0.6468,-0.39740000000000003,0.35910000000000003,0.01,0.026000000000000002,-0.043000000000000003
1670355165.039972,-9.411,0.024,4.491,-0.6469,-0.3997,0.3609,0.015,0.027,-0.052000000000000005
1670355165.079972,-9.4,0.029,4.476,-0.6458,-0.39540000000000003,0.3592,0.012,0.018000000000000002,-0.05
1670355165.119972,-9.346,0.031,4.434,-0.6435000000000001,-0.3982,0.3592,0.0,0.014,-0.043000000000000003
1670355165.159972,-9.367,0.049,4.4750000000000005,-0.6469,-0.39690000000000003,0.3604,0.002,0.01,-0.052000000000000005
1670355165.199972,-9.381,0.056,4.424,-0.6458,-0.3966,0.35950000000000004,0.008,0.01,-0.055
1670355165.2399719,-9.381,0.019,4.505,-0.6449,-0.3957,0.3592,0.007,0.014,-0.053
1670355165.279972,-9.370000000000001,0.008,4.461,-0.6415000000000001,-0.39690000000000003,0.35700000000000004,-0.001,0.019,-0.043000000000000003
1670355165.319972,-9.363,0.06,4.491,-0.6466000000000001,-0.39790000000000003,0.35960000000000003,0.002,0.015,-0.041
1670355165.359972,-9.391,0.067,4.493,-0.6454000000000001,-0.3975,0.3598,0.007,0.019,-0.048
1670355165.399972,-9.354000000000001,0.045,4.495,-0.6456000000000001,-0.3955,0.3579,0.013000000000000001,0.015,-0.047
1670355165.439972,-9.378,0.03,4.487,-0.6455000000000001,-0.39790000000000003,0.35910000000000003,0.009000000000000001,0.016,-0.047
1670355165.479972,-9.39,0.067,4.45,-0.647,-0.3982,0.3578,0.006,0.021,-0.048
1670355165.519972,-9.392,0.064,4.489,-0.6465000000000001,-0.39890000000000003,0.3584,0.009000000000000001,0.019,-0.054
1670355165.559972,-9.371,0.076,4.49,-0.6451,-0.39740000000000003,0.35800000000000004,0.006,0.02,-0.054
1670355165.599972,-9.297,0.044,4.46,-0.6429,-0.3976,0.35960000000000003,-0.002,0.016,-0.05
1670355165.639972,-9.408,0.05,4.492,-0.6448,-0.39840000000000003,0.3598,-0.004,0.02,-0.046
1670355165.679972,-9.424,0.058,4.511,-0.6463,-0.4002,0.36160000000000003,0.009000000000000001,0.028,-0.058
1670355165.719972,-9.313,0.041,4.477,-0.6453,-0.39640000000000003,0.3574,0.003,0.019,-0.063
1670355165.759972,-9.359,0.031,4.469,-0.643,-0.3946,0.3607,-0.005,0.013000000000000001,-0.045
1670355165.799972,-9.393,0.067,4.481,-0.6453,-0.3986,0.3607,0.003,0.016,-0.052000000000000005
1670355165.839972,-9.395,0.038,4.507,-0.6457,-0.39790000000000003,0.3604,0.015,0.017,-0.059000000000000004
1670355165.879972,-9.347,0.01,4.535,-0.6435000000000001,-0.3961,0.3588,0.005,0.016,-0.041
1670355165.919971,-9.346,0.038,4.472,-0.6461,-0.3982,0.35760000000000003,-0.01,0.019,-0.044
1670355165.959971,-9.429,0.063,4.531,-0.6462,-0.3985,0.36010000000000003,0.013000000000000001,0.018000000000000002,-0.05
1670355165.999971,-9.375,0.068,4.509,-0.6494,-0.3967,0.3607,0.02,0.023,-0.048
1670355166.0399709,-9.344,0.016,4.484,-0.6474000000000001,-0.39830000000000004,0.36510000000000004,0.008,0.023,-0.048
1670355166.079971,-9.361,0.046,4.516,-0.6461,-0.397,0.35900000000000004,0.004,0.013000000000000001,-0.037
1670355166.119971,-9.377,0.079,4.483,-0.6435000000000001,-0.3955,0.36050000000000004,0.013000000000000001,0.014,-0.054
1670355166.159971,-9.381,0.024,4.508,-0.6491,-0.3982,0.3548,0.014,0.012,-0.057
1670355166.199971,-9.373,0.034,4.473,-0.6462,-0.3962,0.3647,0.002,0.014,-0.05
1670355166.239971,-9.373,0.034,4.497,-0.6462,-0.3962,0.3718,-0.004,0.025,-0.052000000000000005
1670355166.279971,-9.355,0.062,4.497,-0.646,-0.3996,0.3718,-0.002,0.026000000000000002,-0.052000000000000005
1670355166.319971,-9.358,0.042,4.516,-0.648,-0.39880000000000004,0.34900000000000003,0.004,0.024,-0.058
1670355166.359971,-9.366,0.058,4.507,-0.6488,-0.3965,0.3855,0.004,0.023,-0.051000000000000004
1670355166.399971,-9.369,0.043000000000000003,4.503,-0.6471,-0.3975,0.3497,0.006,0.017,-0.051000000000000004
1670355166.439971,-9.361,0.07,4.5,-0.6479,-0.39630000000000004,0.3587,0.003,0.02,-0.054
1670355166.479971,-9.353,0.061,4.479,-0.6456000000000001,-0.3966,0.3592,0.003,0.016,-0.05
1670355166.519971,-9.362,0.008,4.464,-0.6451,-0.39890000000000003,0.3627,-0.002,0.019,-0.048
1670355166.559971,-9.392,0.037,4.508,-0.6476000000000001,-0.3952,0.3599,0.005,0.022,-0.041
1670355166.599971,-9.408,0.114,4.524,-0.6459,-0.39790000000000003,0.3588,0.007,0.026000000000000002,-0.054
1670355166.639971,-9.343,-0.017,4.468,-0.6461,-0.3975,0.3603,0.001,0.02,-0.054
1670355166.679971,-9.354000000000001,0.066,4.469,-0.644,-0.3971,0.3599,0.0,0.012,-0.048
1670355166.719971,-9.397,0.094,4.5040000000000004,-0.6455000000000001,-0.398,0.3573,0.005,0.015,-0.052000000000000005
1670355166.759971,-9.382,0.061,4.525,-0.6436000000000001,-0.39580000000000004,0.3574,0.015,0.012,-0.057
1670355166.799971,-9.382,0.031,4.5040000000000004,-0.6475000000000001,-0.3966,0.35900000000000004,-0.002,0.02,-0.047
1670355166.839971,-9.399000000000001,0.014,4.53,-0.6486000000000001,-0.39880000000000004,0.3689,0.0,0.022,-0.049
1670355166.879971,-9.399000000000001,0.161,4.558,-0.6435000000000001,-0.3985,0.35900000000000004,0.012,0.027,-0.048
1670355166.919971,-9.388,0.032,4.499,-0.6452,-0.3981,0.3592,0.01,0.031,-0.06
1670355166.95997,-9.370000000000001,0.018000000000000002,4.505,-0.6464000000000001,-0.3997,0.3588,0.0,0.026000000000000002,-0.045
1670355166.99997,-9.364,0.075,4.479,-0.6443,-0.3982,0.35810000000000003,-0.005,0.013000000000000001,-0.043000000000000003
1670355167.03997,-9.396,0.116,4.514,-0.6441,-0.39780000000000004,0.3649,0.012,0.012,-0.051000000000000004
1670355167.07997,-9.372,0.046,4.477,-0.653,-0.398,0.3627,0.012,0.014,-0.06
1670355167.11997,-9.39,0.01,4.47,-0.6449,-0.39790000000000003,0.35900000000000004,-0.003,0.021,-0.05
1670355167.15997,-9.382,0.055,4.519,-0.643,-0.3977,0.36050000000000004,-0.005,0.024,-0.052000000000000005
1670355167.19997,-9.379,0.076,4.54,-0.6455000000000001,-0.39830000000000004,0.3589,0.008,0.025,-0.051000000000000004
1670355167.23997,-9.388,0.052000000000000005,4.506,-0.6426000000000001,-0.3972,0.36100000000000004,0.007,0.021,-0.058
1670355167.27997,-9.388,0.048,4.53,-0.6479,-0.3957,0.3614,0.007,0.017,-0.049
1670355167.31997,-9.399000000000001,0.06,4.474,-0.6447,-0.39840000000000003,0.3628,0.004,0.021,-0.04
1670355167.35997,-9.362,0.044,4.466,-0.6442,-0.3972,0.3603,-0.002,0.029,-0.039
1670355167.39997,-9.349,0.096,4.476,-0.6428,-0.39690000000000003,0.35900000000000004,0.0,0.026000000000000002,-0.049
1670355167.43997,-9.428,0.065,4.476,-0.6468,-0.3982,0.3588,0.023,0.012,-0.064
1670355167.47997,-9.349,0.08700000000000001,4.4510000000000005,-0.6438,-0.3985,0.3587,0.018000000000000002,0.005,-0.067
1670355167.51997,-9.376,0.085,4.517,-0.6434000000000001,-0.4,0.3608,0.007,0.006,-0.037
1670355167.55997,-9.402000000000001,0.002,4.484,-0.6435000000000001,-0.4005,0.35750000000000004,0.003,0.018000000000000002,-0.052000000000000005
1670355167.59997,-9.32,0.101,4.482,-0.644,-0.39890000000000003,0.3582,0.006,0.023,-0.057
1670355167.63997,-9.335,0.039,4.464,-0.6446000000000001,-0.39790000000000003,0.35960000000000003,-0.003,0.012,-0.05
1670355167.67997,-9.391,0.076,4.502,-0.6461,-0.3982,0.3583,0.004,0.006,-0.055
1670355167.71997,-9.41,0.053,4.57,-0.6463,-0.4015,0.3598,0.015,0.01,-0.053
1670355167.75997,-9.335,0.015,4.497,-0.6455000000000001,-0.3952,0.3599,0.002,0.016,-0.055
1670355167.79997,-9.325000000000001,0.093,4.503,-0.6457,-0.3977,0.3588,-0.006,0.008,-0.047
1670355167.83997,-9.381,0.02,4.469,-0.6451,-0.3981,0.3609,0.009000000000000001,0.021,-0.05
1670355167.87997,-9.378,0.089,4.487,-0.6461,-0.3972,0.35850000000000004,0.015,0.029,-0.06
1670355167.91997,-9.348,0.032,4.493,-0.6447,-0.39930000000000004,0.3603,0.005,0.026000000000000002,-0.054
1670355167.95997,-9.379,0.055,4.51,-0.644,-0.39730000000000004,0.3603,-0.004,0.02,-0.039
1670355167.999969,-9.399000000000001,0.095,4.476,-0.6443,-0.3972,0.35810000000000003,0.003,0.019,-0.058
1670355168.039969,-9.379,0.038,4.497,-0.6444000000000001,-0.398,0.3609,0.013000000000000001,0.014,-0.064
1670355168.079969,-9.384,0.025,4.449,-0.6527000000000001,-0.4012,0.35950000000000004,-0.003,0.02,-0.053
1670355168.119969,-9.36,0.066,4.468,-0.6465000000000001,-0.3975,0.35900000000000004,-0.009000000000000001,0.019,-0.045
1670355168.159969,-9.363,0.064,4.534,-0.6466000000000001,-0.39940000000000003,0.36050000000000004,0.003,0.023,-0.05
1670355168.199969,-9.368,0.04,4.487,-0.6452,-0.39880000000000004,0.36010000000000003,0.015,0.013000000000000001,-0.056
1670355168.239969,-9.384,0.047,4.469,-0.6474000000000001,-0.39940000000000003,0.3617,0.007,0.016,-0.046
1670355168.279969,-9.368,0.039,4.526,-0.644,-0.39880000000000004,0.35850000000000004,0.005,0.018000000000000002,-0.041
1670355168.319969,-9.367,0.074,4.515,-0.6451,-0.3976,0.3607,0.005,0.013000000000000001,-0.046
1670355168.359969,-9.366,0.077,4.481,-0.6457,-0.3967,0.3488,0.009000000000000001,0.022,-0.045
1670355168.399969,-9.373,0.026000000000000002,4.507,-0.6491,-0.39890000000000003,0.36810000000000004,0.009000000000000001,0.02,-0.052000000000000005
1670355168.439969,-9.373,0.02,4.506,-0.6491,-0.39630000000000004,0.3564,0.003,0.024,-0.052000000000000005
1670355168.479969,-9.412,0.02,4.514,-0.6502,-0.39630000000000004,0.3564,-0.007,0.024,-0.045
1670355168.519969,-9.352,0.062,4.514,-0.6477,-0.39880000000000004,0.36860000000000004,-0.002,0.021,-0.038
1670355168.559969,-9.379,0.11900000000000001,4.513,-0.6454000000000001,-0.3965,0.3299,0.011,0.029,-0.052000000000000005
1670355168.599969,-9.384,-0.015,4.488,-0.6483,-0.3982,0.36260000000000003,0.013000000000000001,0.023,-0.058
1670355168.639969,-9.358,0.09,4.457,-0.6452,-0.3986,0.3617,-0.002,0.02,-0.043000000000000003
1670355168.679969,-9.375,0.044,4.487,-0.6447,-0.3952,0.35900000000000004,-0.002,0.02,-0.043000000000000003
1670355168.719969,-9.378,0.073,4.539,-0.6441,-0.3997,0.3579,0.013000000000000001,0.018000000000000002,-0.052000000000000005
1670355168.759969,-9.383000000000001,0.049,4.501,-0.6449,-0.3972,0.3599,0.008,0.019,-0.059000000000000004
1670355168.799969,-9.36,0.013000000000000001,4.478,-0.646,-0.39740000000000003,0.3604,-0.007,0.015,-0.049
1670355168.839969,-9.339,0.08700000000000001,4.498,-0.6519,-0.4017,0.3694,0.001,0.025,-0.039
1670355168.879969,-9.382,0.043000000000000003,4.448,-0.6455000000000001,-0.39830000000000004,0.35800000000000004,0.016,0.02,-0.05
1670355168.9199688,-9.395,0.098,4.489,-0.6532,-0.39930000000000004,0.36300000000000004,0.018000000000000002,0.022,-0.055
1670355168.959969,-9.362,0.019,4.45,-0.6444000000000001,-0.3971,0.3579,-0.001,0.018000000000000002,-0.042
1670355168.999969,-9.396,0.082,4.485,-0.6487,-0.4005,0.3659,0.008,0.009000000000000001,-0.043000000000000003
1670355169.039968,-9.367,0.109,4.493,-0.646,-0.3975,0.36210000000000003,0.013000000000000001,0.009000000000000001,-0.056
1670355169.079968,-9.372,0.031,4.484,-0.6472,-0.39890000000000003,0.35960000000000003,0.003,0.014,-0.054
1670355169.119968,-9.379,0.036000000000000004,4.461,-0.6468,-0.39940000000000003,0.3598,-0.006,0.019,-0.052000000000000005
1670355169.159968,-9.387,0.065,4.516,-0.6458,-0.3992,0.36100000000000004,-0.001,0.02,-0.05
1670355169.199968,-9.394,0.07200000000000001,4.482,-0.644,-0.3981,0.3604,0.001,0.02,-0.047
1670355169.239968,-9.391,0.047,4.495,-0.6479,-0.394,0.3582,0.005,0.018000000000000002,-0.055
1670355169.279968,-9.368,0.069,4.496,-0.6463,-0.3997,0.3588,0.006,0.02,-0.047
1670355169.319968,-9.364,0.074,4.4750000000000005,-0.6443,-0.39530000000000004,0.36160000000000003,0.009000000000000001,0.016,-0.053
1670355169.359968,-9.387,0.06,4.515,-0.6469,-0.3971,0.3568,0.003,0.018000000000000002,-0.045
1670355169.399968,-9.382,0.065,4.466,-0.644,-0.39890000000000003,0.3594,0.004,0.025,-0.05
1670355169.439968,-9.362,0.076,4.456,-0.6427,-0.3982,0.35900000000000004,0.008,0.016,-0.054
1670355169.479968,-9.332,0.046,4.449,-0.6446000000000001,-0.3955,0.35810000000000003,0.002,0.013000000000000001,-0.054
1670355169.519968,-9.393,0.077,4.462,-0.6429,-0.3982,0.35850000000000004,0.004,0.02,-0.039
1670355169.559968,-9.428,0.092,4.466,-0.6434000000000001,-0.3957,0.3584,0.01,0.025,-0.052000000000000005
1670355169.599968,-9.354000000000001,0.037,4.487,-0.6434000000000001,-0.39890000000000003,0.3564,0.0,0.018000000000000002,-0.052000000000000005
1670355169.639968,-9.358,0.062,4.488,-0.6429,-0.3975,0.3574,0.001,0.012,-0.042
1670355169.679968,-9.376,0.09,4.495,-0.6422,-0.3975,0.3607,0.006,0.009000000000000001,-0.049
1670355169.719968,-9.368,0.06,4.488,-0.6455000000000001,-0.39840000000000003,0.36100000000000004,0.015,0.01,-0.058
1670355169.759968,-9.376,0.052000000000000005,4.505,-0.6438,-0.39980000000000004,0.3614,0.002,0.015,-0.049
1670355169.799968,-9.378,0.051000000000000004,4.5120000000000005,-0.6441,-0.3996,0.3612,-0.005,0.019,-0.045
1670355169.839968,-9.411,0.14400000000000002,4.5,-0.6454000000000001,-0.3971,0.3613,0.014,0.019,-0.046
1670355169.879968,-9.406,0.067,4.478,-0.6445000000000001,-0.3961,0.35910000000000003,0.014,0.033,-0.058
1670355169.919968,-9.354000000000001,0.029,4.452,-0.6465000000000001,-0.39780000000000004,0.3629,-0.001,0.021,-0.035
1670355169.9599679,-9.349,0.083,4.47,-0.6449,-0.4001,0.3572,-0.005,0.018000000000000002,-0.034
1670355169.999968,-9.402000000000001,0.121,4.484,-0.6446000000000001,-0.397,0.35710000000000003,0.018000000000000002,0.012,-0.063
1670355170.039968,-9.349,0.058,4.442,-0.6444000000000001,-0.39930000000000004,0.35810000000000003,0.017,0.013000000000000001,-0.058
1670355170.079967,-9.370000000000001,0.025,4.48,-0.647,-0.3966,0.3614,0.007,0.014,-0.051000000000000004
1670355170.119967,-9.385,0.062,4.484,-0.6455000000000001,-0.39830000000000004,0.36000000000000004,-0.004,0.015,-0.038
1670355170.159967,-9.365,0.077,4.472,-0.6451,-0.3986,0.3598,0.0,0.019,-0.053
1670355170.199967,-9.374,0.058,4.484,-0.6444000000000001,-0.39680000000000004,0.3612,0.011,0.01,-0.054
1670355170.239967,-9.354000000000001,0.053,4.472,-0.6472,-0.39730000000000004,0.3603,0.003,0.013000000000000001,-0.045
1670355170.279967,-9.372,0.08,4.416,-0.6448,-0.39930000000000004,0.36000000000000004,0.009000000000000001,0.017,-0.045
1670355170.319967,-9.388,0.089,4.505,-0.6443,-0.3981,0.3562,0.014,0.015,-0.05
1670355170.359967,-9.351,0.073,4.49,-0.6474000000000001,-0.39880000000000004,0.3589,0.012,0.017,-0.053
1670355170.399967,-9.385,0.016,4.48,-0.644,-0.39930000000000004,0.3584,0.009000000000000001,0.023,-0.049
1670355170.439967,-9.371,0.08700000000000001,4.516,-0.646,-0.3955,0.35810000000000003,0.004,0.014,-0.052000000000000005
1670355170.479967,-9.403,0.128,4.482,-0.6441,-0.39830000000000004,0.3598,0.004,0.019,-0.036000000000000004
1670355170.519967,-9.379,0.001,4.489,-0.6442,-0.4006,0.35860000000000003,0.003,0.029,-0.054
1670355170.559967,-9.351,0.107,4.4750000000000005,-0.6434000000000001,-0.3987,0.3574,0.007,0.028,-0.057
1670355170.599967,-9.371,0.093,4.461,-0.6474000000000001,-0.3986,0.3704,-0.003,0.017,-0.047
1670355170.639967,-9.396,0.08600000000000001,4.489,-0.6474000000000001,-0.4015,0.3662,0.005,0.015,-0.055
1670355170.679967,-9.396,0.08600000000000001,4.491,-0.6484,-0.4015,0.3519,0.01,0.012,-0.061
1670355170.719967,-9.39,0.062,4.491,-0.6438,-0.39890000000000003,0.3519,-0.002,0.018000000000000002,-0.056
1670355170.7599669,-9.364,0.019,4.524,-0.6469,-0.3997,0.35850000000000004,-0.01,0.026000000000000002,-0.053
1670355170.799967,-9.36,0.138,4.491,-0.6475000000000001,-0.39880000000000004,0.3519,-0.002,0.023,-0.05
1670355170.839967,-9.402000000000001,0.005,4.507,-0.6452,-0.3976,0.3457,0.009000000000000001,0.032,-0.052000000000000005
1670355170.879967,-9.38,0.059000000000000004,4.496,-0.6449,-0.39990000000000003,0.36210000000000003,0.003,0.026000000000000002,-0.048
1670355170.919967,-9.352,0.07,4.438,-0.655,-0.4012,0.3599,0.0,0.01,-0.042
1670355170.959967,-9.383000000000001,0.08700000000000001,4.511,-0.6447,-0.39680000000000004,0.36060000000000003,0.014,0.009000000000000001,-0.061
1670355170.9999669,-9.389,0.078,4.476,-0.6466000000000001,-0.4002,0.3643,0.012,0.014,-0.06
1670355171.039967,-9.391,0.029,4.5120000000000005,-0.6471,-0.398,0.35700000000000004,-0.002,0.012,-0.048
1670355171.079967,-9.372,0.047,4.473,-0.6579,-0.4021,0.3709,-0.005,0.014,-0.053
1670355171.119967,-9.358,0.08700000000000001,4.51,-0.6446000000000001,-0.3972,0.36010000000000003,0.005,0.016,-0.053
1670355171.159967,-9.382,0.084,4.484,-0.6474000000000001,-0.399,0.3633,0.007,0.012,-0.058
1670355171.199966,-9.378,0.056,4.499,-0.6457,-0.3967,0.3603,0.0,0.007,-0.055
1670355171.239966,-9.367,0.055,4.513,-0.6451,-0.3976,0.3607,0.002,0.008,-0.049
1670355171.279966,-9.376,0.062,4.518,-0.6481,-0.39930000000000004,0.3567,0.006,0.013000000000000001,-0.047
1670355171.319966,-9.376,0.08700000000000001,4.511,-0.6462,-0.3992,0.3607,0.011,0.017,-0.056
1670355171.359966,-9.345,0.055,4.533,-0.6452,-0.39780000000000004,0.3618,0.006,0.016,-0.057
1670355171.399966,-9.388,-0.01,4.51,-0.6468,-0.3992,0.3568,-0.004,0.018000000000000002,-0.048
1670355171.439966,-9.387,0.048,4.515,-0.6469,-0.3972,0.35900000000000004,-0.003,0.013000000000000001,-0.041
1670355171.479966,-9.424,0.168,4.558,-0.6425000000000001,-0.3985,0.35960000000000003,0.016,0.014,-0.055
1670355171.519966,-9.370000000000001,-0.02,4.493,-0.6455000000000001,-0.3986,0.3622,0.013000000000000001,0.019,-0.057
1670355171.5599658,-9.353,0.043000000000000003,4.503,-0.6444000000000001,-0.39830000000000004,0.35800000000000004,0.0,0.011,-0.052000000000000005
1670355171.599966,-9.353,0.08700000000000001,4.5200000000000005,-0.6447,-0.3962,0.3587,0.0,0.009000000000000001,-0.052000000000000005
1670355171.639966,-9.374,0.095,4.534,-0.6463,-0.39690000000000003,0.36160000000000003,0.012,0.009000000000000001,-0.055
1670355171.679966,-9.376,0.042,4.555,-0.6438,-0.3992,0.3599,0.012,0.012,-0.053
1670355171.719966,-9.35,-0.019,4.534,-0.648,-0.39540000000000003,0.3587,-0.003,0.013000000000000001,-0.053
1670355171.759966,-9.361,0.124,4.5360000000000005,-0.6465000000000001,-0.3995,0.3574,0.005,0.021,-0.039
1670355171.7999659,-9.361,0.032,4.492,-0.6429,-0.3972,0.35960000000000003,0.014,0.025,-0.046
1670355171.839966,-9.357,0.039,4.494,-0.6434000000000001,-0.3985,0.3624,0.018000000000000002,0.029,-0.051000000000000004
1670355171.879966,-9.34,0.062,4.484,-0.6441,-0.39940000000000003,0.3593,-0.001,0.024,-0.041
1670355171.919966,-9.343,0.093,4.508,-0.6451,-0.3986,0.36100000000000004,0.007,0.017,-0.04
1670355171.959966,-9.376,0.067,4.492,-0.6449,-0.39740000000000003,0.3603,0.013000000000000001,0.013000000000000001,-0.056
1670355171.999966,-9.377,0.046,4.51,-0.6462,-0.3971,0.35910000000000003,0.001,0.014,-0.058
1670355172.0399659,-9.377,0.062,4.503,-0.6461,-0.3986,0.3604,-0.004,0.022,-0.044
1670355172.079966,-9.364,0.083,4.515,-0.6438,-0.39730000000000004,0.3603,0.005,0.022,-0.042
1670355172.119966,-9.36,0.037,4.525,-0.6431,-0.3975,0.3582,0.0,0.028,-0.06
1670355172.159966,-9.356,0.06,4.498,-0.6493,-0.39980000000000004,0.35900000000000004,-0.011,0.031,-0.054
1670355172.199966,-9.370000000000001,0.09,4.5120000000000005,-0.6449,-0.39830000000000004,0.36260000000000003,-0.018000000000000002,0.025,-0.047
1670355172.239965,-9.357,0.096,4.47,-0.642,-0.3986,0.36000000000000004,-0.011,0.023,-0.058
1670355172.279965,-9.36,0.076,4.49,-0.6421,-0.39690000000000003,0.36010000000000003,0.0,0.025,-0.06
1670355172.319965,-9.375,0.031,4.488,-0.644,-0.3956,0.3614,-0.002,0.022,-0.056
1670355172.3599648,-9.323,0.033,4.476,-0.6458,-0.39830000000000004,0.36150000000000004,-0.006,0.01,-0.042
1670355172.399965,-9.401,0.05,4.503,-0.6443,-0.3971,0.36010000000000003,-0.002,0.015,-0.057
1670355172.439965,-9.431000000000001,0.08,4.471,-0.6427,-0.3975,0.35710000000000003,0.017,0.017,-0.043000000000000003
1670355172.479965,-9.359,-0.003,4.477,-0.6449,-0.39830000000000004,0.36160000000000003,0.019,0.014,-0.052000000000000005
1670355172.519965,-9.323,0.022,4.486,-0.6463,-0.3982,0.35810000000000003,0.006,0.013000000000000001,-0.048
1670355172.559965,-9.375,0.076,4.532,-0.6463,-0.3997,0.3588,0.012,0.011,-0.041
1670355172.5999649,-9.373,0.073,4.543,-0.6443,-0.39380000000000004,0.35850000000000004,0.027,0.01,-0.054
1670355172.639965,-9.363,0.024,4.493,-0.6453,-0.4007,0.3614,0.018000000000000002,0.016,-0.042
1670355172.679965,-9.370000000000001,0.049,4.485,-0.6459,-0.39890000000000003,0.36100000000000004,0.004,0.018000000000000002,-0.047
1670355172.719965,-9.397,0.147,4.554,-0.6434000000000001,-0.39830000000000004,0.36260000000000003,0.012,0.01,-0.038
1670355172.759965,-9.411,0.08,4.5,-0.6436000000000001,-0.3975,0.3597,0.019,0.017,-0.051000000000000004
1670355172.799965,-9.342,0.037,4.493,-0.6471,-0.3976,0.3673,0.016,0.021,-0.054
1670355172.8399649,-9.352,0.081,4.484,-0.6429,-0.39740000000000003,0.35850000000000004,0.001,0.015,-0.038
1670355172.879965,-9.352,0.11800000000000001,4.542,-0.6591,-0.40290000000000004,0.38380000000000003,0.005,0.007,-0.045
1670355172.919965,-9.394,0.11800000000000001,4.49,-0.6591,-0.40290000000000004,0.38380000000000003,0.014,0.005,-0.058
1670355172.959965,-9.367,0.07100000000000001,4.49,-0.6478,-0.39790000000000003,0.35650000000000004,0.008,0.012,-0.053
1670355172.999965,-9.35,0.043000000000000003,4.51,-0.6469,-0.3997,0.3635,-0.001,0.016,-0.052000000000000005
1670355173.039965,-9.364,0.068,4.495,-0.6478,-0.3975,0.38020000000000004,-0.009000000000000001,0.018000000000000002,-0.051000000000000004
1670355173.0799649,-9.388,0.059000000000000004,4.557,-0.6521,-0.4055,0.35950000000000004,0.003,0.018000000000000002,-0.051000000000000004
1670355173.119965,-9.33,0.069,4.516,-0.6443,-0.39590000000000003,0.36160000000000003,0.008,0.021,-0.051000000000000004
1670355173.159965,-9.354000000000001,0.051000000000000004,4.534,-0.654,-0.39930000000000004,0.364,0.008,0.022,-0.045
1670355173.199965,-9.38,0.082,4.513,-0.6475000000000001,-0.3996,0.36010000000000003,0.009000000000000001,0.02,-0.049
1670355173.239965,-9.345,0.075,4.487,-0.646,-0.39680000000000004,0.35810000000000003,0.016,0.019,-0.053
1670355173.279964,-9.384,0.05,4.53,-0.6428,-0.3991,0.3637,0.003,0.017,-0.056
1670355173.319964,-9.370000000000001,0.095,4.548,-0.6456000000000001,-0.39930000000000004,0.35950000000000004,0.001,0.016,-0.05
1670355173.359964,-9.397,0.105,4.506,-0.6443,-0.39830000000000004,0.35950000000000004,0.007,0.023,-0.049
1670355173.3999639,-9.367,0.014,4.518,-0.646,-0.39990000000000003,0.3607,0.003,0.014,-0.065
1670355173.439964,-9.301,0.122,4.496,-0.6467,-0.39690000000000003,0.3577,-0.005,0.01,-0.057
1670355173.479964,-9.368,0.094,4.522,-0.6441,-0.3982,0.3617,0.001,0.01,-0.057
1670355173.519964,-9.368,0.054,4.5520000000000005,-0.6456000000000001,-0.3996,0.3578,0.0,0.015,-0.056
1670355173.559964,-9.399000000000001,0.053,4.5600000000000005,-0.6462,-0.4002,0.36060000000000003,-0.001,0.023,-0.056
1670355173.599964,-9.366,0.002,4.493,-0.6468,-0.39930000000000004,0.3602,-0.011,0.024,-0.052000000000000005
1670355173.6399639,-9.347,0.136,4.506,-0.6433,-0.3986,0.3593,0.001,0.028,-0.046
1670355173.679964,-9.403,0.028,4.482,-0.6426000000000001,-0.39780000000000004,0.36200000000000004,0.014,0.027,-0.054
1670355173.719964,-9.347,0.056,4.509,-0.6462,-0.39740000000000003,0.3612,0.004,0.025,-0.045
1670355173.759964,-9.325000000000001,0.057,4.479,-0.6442,-0.3976,0.36050000000000004,0.001,0.021,-0.044
1670355173.799964,-9.387,0.10200000000000001,4.534,-0.6449,-0.39890000000000003,0.3603,0.013000000000000001,0.01,-0.052000000000000005
1670355173.839964,-9.365,0.08600000000000001,4.51,-0.645,-0.39740000000000003,0.3588,0.023,0.008,-0.059000000000000004
1670355173.8799639,-9.377,0.014,4.5360000000000005,-0.6437,-0.39730000000000004,0.36010000000000003,0.01,0.011,-0.046
1670355173.919964,-9.361,0.068,4.529,-0.6464000000000001,-0.3986,0.36060000000000003,0.006,0.007,-0.046
1670355173.959964,-9.348,0.078,4.538,-0.6473,-0.3982,0.3614,0.006,0.019,-0.051000000000000004
1670355173.999964,-9.336,0.089,4.5920000000000005,-0.6444000000000001,-0.3976,0.3617,0.017,0.015,-0.056
1670355174.039964,-9.352,0.063,4.526,-0.6451,-0.4002,0.3612,0.008,0.023,-0.056
1670355174.079964,-9.357,0.068,4.519,-0.646,-0.3991,0.35900000000000004,0.007,0.024,-0.045
1670355174.119964,-9.354000000000001,0.089,4.518,-0.6443,-0.39890000000000003,0.3614,0.004,0.025,-0.05
1670355174.159964,-9.325000000000001,0.059000000000000004,4.488,-0.6456000000000001,-0.39930000000000004,0.36100000000000004,0.002,0.027,-0.048
1670355174.199964,-9.387,0.064,4.493,-0.6504,-0.39880000000000004,0.3618,-0.005,0.032,-0.042
1670355174.239964,-9.427,0.123,4.547,-0.6464000000000001,-0.4,0.3618,0.016,0.023,-0.054
1670355174.279964,-9.334,0.074,4.506,-0.6419,-0.39830000000000004,0.3613,0.007,0.021,-0.057
1670355174.319963,-9.321,0.037,4.471,-0.6459,-0.3985,0.3619,-0.004,0.025,-0.048
1670355174.359963,-9.354000000000001,0.094,4.484,-0.643,-0.39690000000000003,0.3597,-0.001,0.016,-0.054
1670355174.399963,-9.379,0.092,4.525,-0.6431,-0.3986,0.3632,0.008,0.014,-0.061
1670355174.4399629,-9.343,0.045,4.5360000000000005,-0.6458,-0.3987,0.35900000000000004,0.007,0.017,-0.059000000000000004
1670355174.479963,-9.358,0.036000000000000004,4.516,-0.644,-0.3985,0.3628,0.0,0.021,-0.047
1670355174.519963,-9.379,0.11900000000000001,4.5360000000000005,-0.6436000000000001,-0.396,0.36100000000000004,0.003,0.024,-0.047
1670355174.559963,-9.367,0.092,4.5200000000000005,-0.6449,-0.3997,0.3609,0.015,0.032,-0.051000000000000004
1670355174.599963,-9.338000000000001,0.049,4.513,-0.6424000000000001,-0.39990000000000003,0.3635,0.014,0.02,-0.045
1670355174.639963,-9.345,0.075,4.46,-0.6465000000000001,-0.3982,0.36060000000000003,-0.001,0.014,-0.039
1670355174.6799629,-9.381,0.117,4.491,-0.6437,-0.3982,0.3582,0.012,0.014,-0.052000000000000005
1670355174.719963,-9.393,0.064,4.522,-0.6429,-0.39830000000000004,0.35760000000000003,0.014,0.012,-0.058
1670355174.759963,-9.354000000000001,0.044,4.492,-0.6422,-0.398,0.36360000000000003,0.004,0.012,-0.05
1670355174.799963,-9.365,0.07200000000000001,4.482,-0.6436000000000001,-0.39630000000000004,0.3614,-0.002,0.014,-0.043000000000000003
1670355174.839963,-9.362,0.11,4.53,-0.6477,-0.3987,0.36150000000000004,0.0,0.016,-0.051000000000000004
1670355174.879963,-9.35,0.056,4.5360000000000005,-0.6446000000000001,-0.3966,0.3618,0.008,0.015,-0.054
1670355174.919963,-9.373,0.065,4.5280000000000005,-0.6447,-0.39990000000000003,0.3614,0.011,0.014,-0.05
1670355174.959963,-9.357,0.101,4.546,-0.6465000000000001,-0.4015,0.36110000000000003,0.004,0.019,-0.045
1670355174.999963,-9.337,0.061,4.509,-0.6441,-0.39940000000000003,0.36200000000000004,0.005,0.019,-0.052000000000000005
1670355175.039963,-9.402000000000001,0.043000000000000003,4.521,-0.6521,-0.40180000000000005,0.3703,0.004,0.023,-0.06
1670355175.079963,-9.387,0.07,4.534,-0.649,-0.4001,0.3648,0.0,0.017,-0.046
1670355175.119963,-9.387,0.186,4.5520000000000005,-0.649,-0.4046,0.367,-0.003,0.014,-0.041
1670355175.159963,-9.373,0.186,4.5520000000000005,-0.6585000000000001,-0.4046,0.367,0.01,0.027,-0.056
1670355175.199963,-9.36,-0.004,4.513,-0.6482,-0.4017,0.3446,-0.002,0.023,-0.058
1670355175.239963,-9.338000000000001,0.095,4.464,-0.6498,-0.401,0.35100000000000003,-0.003,0.017,-0.043000000000000003
1670355175.279963,-9.359,0.076,4.549,-0.6474000000000001,-0.3991,0.36710000000000004,0.006,0.017,-0.054
1670355175.319963,-9.395,0.093,4.5680000000000005,-0.6467,-0.3991,0.3623,0.014,0.012,-0.058
1670355175.359962,-9.383000000000001,0.044,4.545,-0.6447,-0.398,0.35950000000000004,0.005,0.025,-0.049
1670355175.399962,-9.356,0.01,4.5600000000000005,-0.642,-0.3995,0.3612,-0.001,0.032,-0.041
1670355175.439962,-9.329,0.128,4.541,-0.6444000000000001,-0.39840000000000003,0.3632,0.01,0.03,-0.041
1670355175.4799619,-9.383000000000001,0.018000000000000002,4.496,-0.6468,-0.4,0.3623,0.013000000000000001,0.032,-0.048
1670355175.519962,-9.361,0.07100000000000001,4.51,-0.6444000000000001,-0.39830000000000004,0.3614,0.002,0.024,-0.041
1670355175.559962,-9.344,0.08600000000000001,4.491,-0.6432,-0.3986,0.36010000000000003,0.0,0.015,-0.04
1670355175.599962,-9.368,0.128,4.5040000000000004,-0.6443,-0.3992,0.3628,0.01,0.011,-0.055
1670355175.639962,-9.383000000000001,0.092,4.537,-0.6433,-0.4021,0.3607,0.009000000000000001,0.007,-0.056
1670355175.679962,-9.343,0.07100000000000001,4.466,-0.6421,-0.39880000000000004,0.3618,-0.003,0.012,-0.048
1670355175.719962,-9.354000000000001,0.084,4.521,-0.6461,-0.3991,0.36150000000000004,-0.005,0.012,-0.043000000000000003
1670355175.759962,-9.358,0.101,4.565,-0.6438,-0.3991,0.35960000000000003,-0.001,0.013000000000000001,-0.051000000000000004
1670355175.799962,-9.36,0.10200000000000001,4.498,-0.6443,-0.397,0.36200000000000004,0.01,0.013000000000000001,-0.046
1670355175.839962,-9.375,0.08700000000000001,4.579,-0.6448,-0.4011,0.3587,0.006,0.019,-0.051000000000000004
1670355175.879962,-9.338000000000001,0.096,4.524,-0.6454000000000001,-0.3997,0.35900000000000004,0.007,0.023,-0.049
1670355175.919962,-9.328,0.09,4.519,-0.6458,-0.3991,0.36110000000000003,0.008,0.019,-0.046
1670355175.959962,-9.368,0.117,4.5040000000000004,-0.646,-0.40130000000000005,0.3609,0.005,0.024,-0.044
1670355175.999962,-9.352,0.095,4.49,-0.6448,-0.39640000000000003,0.3632,0.008,0.019,-0.049
1670355176.039962,-9.357,0.05,4.513,-0.6418,-0.398,0.3639,-0.004,0.021,-0.05
1670355176.079962,-9.388,0.10200000000000001,4.533,-0.6458,-0.3991,0.3603,-0.006,0.021,-0.051000000000000004
1670355176.119962,-9.412,0.153,4.499,-0.6453,-0.39930000000000004,0.3598,0.011,0.024,-0.044
1670355176.159962,-9.336,0.013000000000000001,4.437,-0.6449,-0.3971,0.36200000000000004,0.008,0.008,-0.059000000000000004
1670355176.199962,-9.3,0.08600000000000001,4.478,-0.6433,-0.39680000000000004,0.36300000000000004,-0.018000000000000002,0.001,-0.048
1670355176.239962,-9.379,0.138,4.488,-0.6456000000000001,-0.40180000000000005,0.3609,-0.01,-0.008,-0.04
1670355176.279962,-9.364,0.134,4.564,-0.6457,-0.3987,0.36660000000000004,0.019,-0.002,-0.06
1670355176.319962,-9.355,0.048,4.589,-0.6438,-0.3982,0.3598,0.017,-0.004,-0.061
1670355176.359962,-9.346,0.022,4.566,-0.6463,-0.39930000000000004,0.36250000000000004,-0.005,-0.001,-0.049
1670355176.399961,-9.326,0.195,4.573,-0.6476000000000001,-0.3971,0.36200000000000004,0.009000000000000001,0.007,-0.038
1670355176.439961,-9.363,0.076,4.593,-0.6468,-0.39890000000000003,0.3633,0.022,0.021,-0.05
1670355176.479961,-9.312,0.082,4.532,-0.6436000000000001,-0.39930000000000004,0.36260000000000003,0.021,0.017,-0.053
1670355176.5199609,-9.345,0.10400000000000001,4.555,-0.642,-0.39940000000000003,0.3622,0.006,0.011,-0.034
1670355176.559961,-9.332,0.13,4.586,-0.6447,-0.40140000000000003,0.3639,0.007,0.012,-0.046
1670355176.599961,-9.348,0.107,4.564,-0.6447,-0.39990000000000003,0.3627,0.02,0.02,-0.055
1670355176.639961,-9.318,0.095,4.5520000000000005,-0.6443,-0.4002,0.3597,0.007,0.019,-0.055
1670355176.679961,-9.321,0.112,4.549,-0.644,-0.40090000000000003,0.3612,0.003,0.018000000000000002,-0.049
1670355176.719961,-9.33,0.107,4.563,-0.6476000000000001,-0.40130000000000005,0.36310000000000003,0.005,0.019,-0.047
1670355176.759961,-9.33,0.123,4.581,-0.6437,-0.39990000000000003,0.3628,0.009000000000000001,0.021,-0.058
1670355176.799961,-9.344,0.1,4.579,-0.6452,-0.40030000000000004,0.3632,0.009000000000000001,0.024,-0.058
1670355176.839961,-9.311,0.11900000000000001,4.549,-0.6469,-0.4007,0.3607,0.003,0.019,-0.049
1670355176.799961,-9.341000000000001,0.123,4.498,-0.6472,-0.4011,0.3614,0.004,0.021,-0.057
1670355176.839961,-9.332,0.124,4.5600000000000005,-0.6462,-0.3997,0.36100000000000004,0.008,0.025,-0.059000000000000004
1670355176.879961,-9.324,0.108,4.563,-0.6459,-0.3977,0.3613,0.01,0.021,-0.055
1670355176.919961,-9.319,0.07100000000000001,4.554,-0.6447,-0.399,0.36560000000000004,-0.006,0.021,-0.048
1670355176.959961,-9.387,0.08600000000000001,4.555,-0.6442,-0.402,0.36310000000000003,-0.003,0.016,-0.052000000000000005
1670355176.999961,-9.409,0.162,4.587,-0.643,-0.3992,0.3639,0.011,0.025,-0.053
1670355177.039961,-9.309000000000001,0.092,4.514,-0.6484,-0.4,0.3635,0.01,0.025,-0.057
1670355177.079961,-9.306000000000001,0.064,4.514,-0.6468,-0.4021,0.3619,-0.004,0.024,-0.047
1670355177.119961,-9.361,0.153,4.557,-0.6443,-0.4007,0.365,0.004,0.013000000000000001,-0.043000000000000003
1670355177.159961,-9.338000000000001,0.122,4.596,-0.6446000000000001,-0.40230000000000005,0.3664,0.014,0.008,-0.057
1670355177.199961,-9.327,0.056,4.562,-0.6455000000000001,-0.4021,0.369,0.01,0.012,-0.055
1670355177.239961,-9.329,0.08700000000000001,4.5360000000000005,-0.6466000000000001,-0.3977,0.3808,-0.007,0.024,-0.052000000000000005
1670355177.279961,-9.329,0.08700000000000001,4.582,-0.6466000000000001,-0.3977,0.369,0.012,0.016,-0.043000000000000003
1670355177.319961,-9.370000000000001,0.154,4.582,-0.6463,-0.3987,0.369,0.018000000000000002,0.026000000000000002,-0.051000000000000004
1670355177.359961,-9.354000000000001,0.124,4.578,-0.6475000000000001,-0.40040000000000003,0.3684,0.012,0.027,-0.058
1670355177.399961,-9.357,0.068,4.537,-0.6451,-0.4,0.3468,-0.002,0.016,-0.037
1670355177.43996,-9.342,0.11800000000000001,4.564,-0.6467,-0.39990000000000003,0.35960000000000003,0.004,0.015,-0.048
1670355177.47996,-9.353,0.138,4.534,-0.648,-0.4021,0.3627,0.009000000000000001,0.014,-0.056
1670355177.51996,-9.336,0.082,4.555,-0.6444000000000001,-0.3981,0.3643,0.008,0.014,-0.06
1670355177.55996,-9.324,0.078,4.527,-0.6458,-0.401,0.3629,0.0,0.014,-0.043000000000000003
1670355177.59996,-9.348,0.096,4.545,-0.6465000000000001,-0.40180000000000005,0.3612,0.001,0.012,-0.049
1670355177.63996,-9.337,0.113,4.558,-0.644,-0.4007,0.3643,0.007,0.014,-0.049
1670355177.67996,-9.337,0.107,4.531,-0.6445000000000001,-0.39940000000000003,0.3617,0.013000000000000001,0.019,-0.054
1670355177.71996,-9.351,0.08,4.551,-0.6457,-0.4,0.3617,0.003,0.017,-0.041
1670355177.75996,-9.335,0.095,4.578,-0.6436000000000001,-0.39890000000000003,0.3619,0.009000000000000001,0.023,-0.049
1670355177.79996,-9.341000000000001,0.11,4.5600000000000005,-0.6443,-0.3991,0.3618,0.014,0.024,-0.054
1670355177.83996,-9.358,0.123,4.539,-0.6457,-0.401,0.36300000000000004,0.012,0.017,-0.054
1670355177.87996,-9.343,0.107,4.572,-0.6471,-0.4,0.3628,0.001,0.016,-0.051000000000000004
1670355177.91996,-9.344,0.041,4.577,-0.6473,-0.3986,0.3617,-0.009000000000000001,0.011,-0.05
1670355177.95996,-9.376,0.08700000000000001,4.601,-0.6474000000000001,-0.4051,0.3703,-0.002,0.012,-0.044
1670355177.99996,-9.412,0.199,4.602,-0.6456000000000001,-0.4011,0.3617,0.009000000000000001,0.019,-0.06
1670355178.03996,-9.338000000000001,0.046,4.582,-0.6466000000000001,-0.3996,0.3645,0.011,0.016,-0.057
1670355178.07996,-9.291,0.076,4.533,-0.6466000000000001,-0.3995,0.3635,-0.004,0.017,-0.045
1670355178.11996,-9.354000000000001,0.13,4.591,-0.6468,-0.39830000000000004,0.3635,0.005,0.019,-0.049
1670355178.15996,-9.336,0.135,4.62,-0.6472,-0.39840000000000003,0.364,0.012,0.02,-0.058
1670355178.19996,-9.355,0.084,4.561,-0.6516000000000001,-0.404,0.3629,0.005,0.024,-0.053
1670355178.23996,-9.343,0.044,4.5840000000000005,-0.6478,-0.39890000000000003,0.36010000000000003,-0.009000000000000001,0.023,-0.046
1670355178.27996,-9.352,0.22,4.571,-0.6456000000000001,-0.3996,0.3634,0.0,0.03,-0.047
1670355178.31996,-9.367,0.111,4.524,-0.6458,-0.4,0.36060000000000003,0.012,0.029,-0.058
1670355178.35996,-9.324,0.076,4.549,-0.6447,-0.3975,0.36360000000000003,0.004,0.02,-0.051000000000000004
1670355178.39996,-9.343,0.10400000000000001,4.572,-0.6445000000000001,-0.39980000000000004,0.36150000000000004,-0.004,0.016,-0.039
1670355178.43996,-9.35,0.152,4.525,-0.6465000000000001,-0.401,0.36360000000000003,0.004,0.01,-0.052000000000000005
1670355178.479959,-9.342,0.114,4.555,-0.646,-0.39940000000000003,0.3613,0.01,0.01,-0.068
1670355178.519959,-9.34,0.058,4.567,-0.6446000000000001,-0.3997,0.3633,0.001,0.01,-0.054
1670355178.559959,-9.335,0.083,4.571,-0.6466000000000001,-0.4005,0.3642,-0.003,0.012,-0.046
1670355178.599959,-9.339,0.114,4.604,-0.6456000000000001,-0.3997,0.3632,0.002,0.027,-0.045
1670355178.639959,-9.341000000000001,0.106,4.558,-0.6451,-0.39990000000000003,0.3639,0.011,0.024,-0.048
1670355178.679959,-9.334,0.114,4.594,-0.6487,-0.4,0.3617,0.008,0.021,-0.047
1670355178.719959,-9.335,0.108,4.5520000000000005,-0.646,-0.3995,0.3612,0.003,0.018000000000000002,-0.045
1670355178.759959,-9.34,0.132,4.542,-0.6453,-0.401,0.3629,0.005,0.02,-0.045
1670355178.799959,-9.34,0.126,4.551,-0.6464000000000001,-0.4002,0.3624,0.009000000000000001,0.018000000000000002,-0.05
1670355178.839959,-9.349,0.133,4.55,-0.6475000000000001,-0.3987,0.3609,0.006,0.017,-0.051000000000000004
1670355178.879959,-9.326,0.082,4.541,-0.6432,-0.39830000000000004,0.36260000000000003,-0.002,0.011,-0.044
1670355178.919959,-9.364,0.05,4.578,-0.6457,-0.401,0.3603,-0.013000000000000001,0.011,-0.054
1670355178.959959,-9.367,0.10300000000000001,4.63,-0.645,-0.4041,0.3643,-0.009000000000000001,0.012,-0.048
1670355178.999959,-9.391,0.165,4.5600000000000005,-0.6465000000000001,-0.3986,0.3638,0.006,0.009000000000000001,-0.044
1670355179.039959,-9.302,0.045,4.537,-0.6447,-0.4001,0.3643,0.001,0.024,-0.058
1670355179.079959,-9.287,0.099,4.518,-0.6457,-0.3996,0.36100000000000004,0.001,0.029,-0.055
1670355179.119959,-9.343,0.131,4.589,-0.6453,-0.4,0.3594,-0.004,0.014,-0.043000000000000003
1670355179.159959,-9.336,0.117,4.615,-0.647,-0.3985,0.36260000000000003,0.007,0.015,-0.051000000000000004
1670355179.199959,-9.369,0.068,4.532,-0.654,-0.40190000000000003,0.3634,0.01,0.015,-0.06
1670355179.239959,-9.344,0.058,4.594,-0.6452,-0.3985,0.36200000000000004,-0.002,0.015,-0.049
1670355179.279959,-9.331,0.187,4.585,-0.6448,-0.3992,0.36460000000000004,0.0,0.014,-0.042
1670355179.319959,-9.373,0.07,4.548,-0.6465000000000001,-0.3982,0.36260000000000003,0.012,0.027,-0.058
1670355179.359959,-9.317,0.099,4.5360000000000005,-0.6452,-0.401,0.36260000000000003,0.015,0.024,-0.054
1670355179.3999588,-9.321,0.108,4.579,-0.6463,-0.4005,0.3549,0.002,0.017,-0.04
1670355179.439959,-9.346,0.126,4.533,-0.6487,-0.4026,0.3579,0.001,0.014,-0.052000000000000005
1670355179.479959,-9.346,0.113,4.577,-0.6487,-0.4036,0.3627,0.014,0.012,-0.057
1670355179.519958,-9.305,0.113,4.577,-0.649,-0.4036,0.3627,0.005,0.012,-0.056
1670355179.559958,-9.329,0.074,4.558,-0.6469,-0.3982,0.3609,0.0,0.017,-0.053
1670355179.599958,-9.317,0.095,4.535,-0.6451,-0.398,0.3789,-0.001,0.027,-0.049
1670355179.639958,-9.362,0.098,4.596,-0.6492,-0.3986,0.3665,0.002,0.026000000000000002,-0.054
1670355179.679958,-9.317,0.1,4.631,-0.6483,-0.3987,0.3632,0.004,0.027,-0.045
1670355179.719958,-9.314,0.08600000000000001,4.586,-0.647,-0.39880000000000004,0.364,0.007,0.023,-0.051000000000000004
1670355179.759958,-9.346,0.116,4.549,-0.6473,-0.3997,0.3609,0.004,0.024,-0.04
1670355179.799958,-9.328,0.125,4.554,-0.6455000000000001,-0.3996,0.3599,0.01,0.027,-0.053
1670355179.839958,-9.342,0.109,4.521,-0.6447,-0.39680000000000004,0.3644,0.015,0.023,-0.046
1670355179.879958,-9.352,0.115,4.541,-0.6428,-0.39890000000000003,0.36210000000000003,0.006,0.028,-0.05
1670355179.919958,-9.341000000000001,0.079,4.5760000000000005,-0.6448,-0.399,0.36310000000000003,-0.015,0.03,-0.035
1670355179.959958,-9.303,0.077,4.533,-0.6463,-0.40190000000000003,0.3679,0.003,0.009000000000000001,-0.048
1670355179.999958,-9.378,0.133,4.609,-0.6434000000000001,-0.3985,0.36100000000000004,0.028,0.003,-0.057
1670355180.039958,-9.415000000000001,0.16,4.563,-0.6559,-0.4022,0.3687,0.023,0.017,-0.061
1670355180.079958,-9.326,0.101,4.533,-0.6457,-0.39980000000000004,0.3643,0.01,0.016,-0.047
1670355180.119958,-9.32,0.081,4.525,-0.6498,-0.4025,0.3673,0.013000000000000001,0.013000000000000001,-0.043000000000000003
1670355180.159958,-9.349,0.17,4.575,-0.6454000000000001,-0.40090000000000003,0.36200000000000004,0.017,0.013000000000000001,-0.063
1670355180.1999578,-9.359,0.126,4.614,-0.6454000000000001,-0.39990000000000003,0.36160000000000003,0.018000000000000002,0.012,-0.059000000000000004
1670355180.239958,-9.305,0.07100000000000001,4.612,-0.645,-0.4007,0.3647,-0.003,0.009000000000000001,-0.051000000000000004
1670355180.279958,-9.316,0.111,4.55,-0.6465000000000001,-0.4032,0.3638,-0.004,0.018000000000000002,-0.044
1670355180.319958,-9.382,0.167,4.586,-0.6457,-0.4002,0.36560000000000004,0.007,0.033,-0.057
1670355180.359958,-9.359,0.138,4.579,-0.6451,-0.40090000000000003,0.3638,0.008,0.038,-0.056
1670355180.399958,-9.309000000000001,0.092,4.555,-0.6449,-0.4017,0.36010000000000003,0.0,0.034,-0.048
1670355180.4399579,-9.344,0.135,4.549,-0.6447,-0.3997,0.3618,-0.006,0.023,-0.047
1670355180.479958,-9.369,0.157,4.582,-0.6476000000000001,-0.4006,0.36510000000000004,0.007,0.016,-0.058
1670355180.519958,-9.339,0.089,4.547,-0.6429,-0.401,0.3648,0.006,0.017,-0.064
1670355180.559958,-9.355,0.076,4.5440000000000005,-0.6441,-0.3981,0.3614,-0.005,0.02,-0.052000000000000005
1670355180.599958,-9.33,0.10200000000000001,4.562,-0.6449,-0.3966,0.3637,-0.004,0.02,-0.05
1670355180.639957,-9.336,0.112,4.59,-0.6454000000000001,-0.4011,0.36200000000000004,0.005,0.018000000000000002,-0.051000000000000004
1670355180.679957,-9.334,0.096,4.547,-0.6436000000000001,-0.3992,0.3634,0.013000000000000001,0.018000000000000002,-0.058
1670355180.719957,-9.367,0.09,4.555,-0.6423,-0.39830000000000004,0.3624,0.009000000000000001,0.019,-0.052000000000000005
1670355180.759957,-9.355,0.095,4.58,-0.6488,-0.4021,0.36360000000000003,0.0,0.02,-0.052000000000000005
1670355180.799957,-9.31,0.122,4.537,-0.6465000000000001,-0.40080000000000005,0.3622,0.01,0.019,-0.049
1670355180.839957,-9.324,0.126,4.527,-0.6468,-0.39730000000000004,0.3633,0.007,0.021,-0.053
1670355180.879957,-9.332,0.08700000000000001,4.5680000000000005,-0.6469,-0.3997,0.3612,0.008,0.02,-0.055
1670355180.919957,-9.356,0.055,4.57,-0.645,-0.4011,0.3652,-0.001,0.021,-0.052000000000000005
1670355180.959957,-9.344,0.122,4.578,-0.6497,-0.40040000000000003,0.36560000000000004,-0.006,0.017,-0.05
1670355180.9999568,-9.342,0.195,4.578,-0.6491,-0.4011,0.3609,0.008,0.011,-0.036000000000000004
1670355181.039957,-9.339,0.019,4.535,-0.6444000000000001,-0.3997,0.364,0.008,0.027,-0.062
1670355181.079957,-9.291,0.116,4.501,-0.6436000000000001,-0.3981,0.3612,0.001,0.029,-0.053
1670355181.119957,-9.338000000000001,0.122,4.579,-0.647,-0.4022,0.36310000000000003,-0.004,0.025,-0.04
1670355181.159957,-9.323,0.128,4.601,-0.6457,-0.3977,0.3598,0.0,0.02,-0.063
1670355181.199957,-9.370000000000001,0.098,4.558,-0.6457,-0.39990000000000003,0.36100000000000004,0.011,0.015,-0.062
1670355181.2399569,-9.316,0.052000000000000005,4.581,-0.6455000000000001,-0.402,0.36050000000000004,0.001,0.018000000000000002,-0.057
1670355181.279957,-9.285,0.155,4.561,-0.6455000000000001,-0.40040000000000003,0.3614,-0.001,0.012,-0.039
1670355181.319957,-9.358,0.037,4.509,-0.6456000000000001,-0.39940000000000003,0.364,0.004,0.023,-0.049
1670355181.359957,-9.355,0.10200000000000001,4.532,-0.6447,-0.3992,0.36210000000000003,0.017,0.027,-0.056
1670355181.399957,-9.351,0.085,4.543,-0.6488,-0.3996,0.3607,0.012,0.02,-0.043000000000000003
1670355181.439957,-9.329,0.116,4.583,-0.65,-0.4021,0.365,-0.001,0.009000000000000001,-0.042
1670355181.4799569,-9.353,0.108,4.564,-0.6461,-0.40180000000000005,0.3638,0.015,0.013000000000000001,-0.056
1670355181.519957,-9.344,0.082,4.566,-0.6484,-0.4,0.36060000000000003,0.01,0.01,-0.057
1670355181.559957,-9.327,0.105,4.556,-0.6455000000000001,-0.3996,0.3628,0.0,0.017,-0.042
1670355181.599957,-9.317,0.11900000000000001,4.543,-0.6497,-0.4002,0.367,-0.006,0.024,-0.048
1670355181.639957,-9.335,0.131,4.5440000000000005,-0.6462,-0.4002,0.36160000000000003,0.007,0.025,-0.046
1670355181.679956,-9.349,0.11,4.594,-0.6454000000000001,-0.4005,0.3446,0.007,0.025,-0.047
1670355181.719956,-9.349,0.11,4.539,-0.6454000000000001,-0.4005,0.3664,0.003,0.024,-0.056
1670355181.759956,-9.318,0.101,4.539,-0.6458,-0.4001,0.3664,0.0,0.022,-0.048
1670355181.7999558,-9.318,0.113,4.531,-0.6495000000000001,-0.4015,0.3408,0.001,0.024,-0.05
1670355181.839956,-9.354000000000001,0.133,4.529,-0.6469,-0.40240000000000004,0.3665,0.007,0.027,-0.053
1670355181.879956,-9.339,0.11,4.551,-0.6465000000000001,-0.3995,0.3609,0.003,0.018000000000000002,-0.056
1670355181.919956,-9.344,0.047,4.533,-0.6489,-0.4011,0.3609,-0.006,0.013000000000000001,-0.046
1670355181.959956,-9.376,0.08700000000000001,4.541,-0.6453,-0.3991,0.35960000000000003,0.003,0.013000000000000001,-0.041
1670355181.999956,-9.415000000000001,0.201,4.563,-0.6481,-0.40040000000000003,0.3624,0.013000000000000001,0.025,-0.059000000000000004
1670355182.0399559,-9.314,0.016,4.54,-0.6547000000000001,-0.4006,0.3648,0.001,0.016,-0.052000000000000005
1670355182.079956,-9.301,0.10300000000000001,4.5120000000000005,-0.644,-0.401,0.36360000000000003,-0.005,0.013000000000000001,-0.041
1670355182.119956,-9.363,0.126,4.551,-0.646,-0.39880000000000004,0.364,0.011,0.009000000000000001,-0.051000000000000004
1670355182.159956,-9.354000000000001,0.107,4.595,-0.6474000000000001,-0.4012,0.36050000000000004,0.019,0.007,-0.064
1670355182.199956,-9.367,0.055,4.615,-0.6602,-0.40490000000000004,0.3699,0.005,0.011,-0.047
1670355182.239956,-9.336,0.058,4.5840000000000005,-0.6444000000000001,-0.3976,0.3638,-0.005,0.016,-0.037
