timestamp,acc_x,acc_y,acc_z,magn_x,magn_y,magn_z,gyro_x,gyro_y,gyro_z
1670342732.08,-9.337,0.11900000000000001,4.4190000000000005,0.1039,0.7110000000000001,0.2437,0.0,-0.017,-0.013000000000000001
1670342732.12,-9.391,-0.046,4.34,0.10060000000000001,0.7113,0.2575,0.004,-0.019,-0.013000000000000001
1670342732.16,-9.423,0.10400000000000001,4.325,0.1033,0.7123,0.2446,0.023,-0.019,-0.008
1670342732.2,-9.402000000000001,0.044,4.36,0.1042,0.7129000000000001,0.24450000000000002,0.023,-0.015,-0.001
1670342732.24,-9.389,0.067,4.4190000000000005,0.1042,0.7131000000000001,0.2464,0.033,-0.02,-0.015
1670342732.28,-9.348,0.055,4.441,0.10310000000000001,0.7135,0.248,0.032,-0.025,-0.024
1670342732.32,-9.427,-0.021,4.4110000000000005,0.1042,0.7126,0.2434,0.015,-0.027,-0.02
1670342732.36,-9.379,0.026000000000000002,4.384,0.1053,0.7117,0.24710000000000001,0.01,-0.021,-0.013000000000000001
1670342732.4,-9.334,0.003,4.448,0.1028,0.7118,0.2607,0.01,-0.02,-0.018000000000000002
1670342732.44,-9.354000000000001,0.011,4.452,0.09860000000000001,0.7124,0.25670000000000004,0.01,-0.012,-0.017
1670342732.48,-9.384,0.018000000000000002,4.466,0.0888,0.7104,0.25730000000000003,0.017,-0.021,-0.011
1670342732.52,-9.415000000000001,0.049,4.436,0.10400000000000001,0.7126,0.2651,0.026000000000000002,-0.011,-0.006
1670342732.559999,-9.406,0.044,4.354,0.1057,0.7106,0.2462,0.041,0.0,-0.003
1670342732.599999,-9.485,-0.114,4.285,0.10360000000000001,0.7108,0.2456,0.027,0.044,-0.01
1670342732.639999,-8.870000000000001,-0.903,4.408,0.1067,0.7144,0.24400000000000002,-0.091,0.07,-0.046
1670342732.6799989,-8.362,0.593,5.007,0.1053,0.7144,0.24580000000000002,-0.098,-0.094,0.037
1670342732.719999,-9.855,-0.132,4.3870000000000005,0.10200000000000001,0.7163,0.2464,0.085,0.017,-0.40800000000000003
1670342732.759999,-9.665000000000001,-0.753,4.239,0.10210000000000001,0.7181000000000001,0.24480000000000002,0.07100000000000001,-0.14300000000000002,-0.341
1670342732.799999,-9.73,-0.189,4.482,0.0978,0.7206,0.24630000000000002,0.07100000000000001,-0.117,-0.297
1670342732.839999,-9.683,0.008,4.4430000000000005,0.0942,0.7188,0.24530000000000002,0.225,-0.044,-0.114
1670342732.879999,-9.754,-0.265,4.368,0.0954,0.7211000000000001,0.2511,0.309,0.0,-0.006
1670342732.919999,-9.200000000000001,-0.545,4.618,0.094,0.7176,0.2469,0.258,-0.012,0.044
1670342732.959999,-9.422,-0.031,4.619,0.0936,0.7131000000000001,0.2509,0.132,-0.006,0.089
1670342732.999999,-9.236,-0.24,4.434,0.0956,0.7143,0.2526,0.037,-0.021,0.023
1670342733.039999,-9.008000000000001,0.262,5.051,0.094,0.7146,0.2492,0.007,-0.022,0.037
1670342733.079999,-9.15,0.425,5.2410000000000005,0.0931,0.7108,0.24710000000000001,0.013000000000000001,-0.089,0.037
1670342733.119999,-9.448,-0.079,4.728,0.09730000000000001,0.7137,0.24880000000000002,-0.021,0.07200000000000001,-0.025
1670342733.159999,-9.094,-1.02,3.238,0.0966,0.7140000000000001,0.24680000000000002,-0.20800000000000002,0.109,0.059000000000000004
1670342733.199999,-9.485,0.918,4.273,0.09620000000000001,0.7130000000000001,0.24400000000000002,-0.079,0.214,0.232
1670342733.239999,-9.928,-0.292,4.724,0.1,0.7152000000000001,0.24430000000000002,-0.025,0.095,0.273
1670342733.279999,-9.985,-0.079,4.7170000000000005,0.1017,0.7110000000000001,0.24070000000000003,-0.17500000000000002,0.136,0.275
1670342733.319999,-9.518,-0.758,4.089,0.1072,0.7104,0.2386,-0.526,0.372,0.31
1670342733.359999,-9.282,0.105,3.745,0.11380000000000001,0.7132000000000001,0.22870000000000001,-0.488,0.49,0.334
1670342733.399999,-9.446,0.36,3.543,0.12140000000000001,0.7145,0.2202,-0.425,0.485,0.382
1670342733.439999,-9.531,0.244,3.878,0.1246,0.7132000000000001,0.2129,-0.265,0.352,0.293
1670342733.479999,-9.571,0.622,3.938,0.1283,0.7122,0.2091,-0.092,0.189,0.127
1670342733.519999,-10.024000000000001,0.088,3.298,0.127,0.7123,0.2066,0.036000000000000004,0.146,-0.101
1670342733.559999,-9.829,0.34400000000000003,3.0100000000000002,0.1331,0.7157,0.20170000000000002,0.10400000000000001,0.106,-0.043000000000000003
1670342733.599998,-9.565,0.651,3.684,0.1323,0.7126,0.2069,0.155,-0.013000000000000001,0.0
1670342733.639998,-9.506,0.178,3.88,0.1282,0.7108,0.2036,0.033,-0.063,-0.006
1670342733.679998,-10.02,0.47400000000000003,3.515,0.13140000000000002,0.7106,0.20520000000000002,-0.056,0.023,-0.096
1670342733.719998,-10.047,-0.147,2.584,0.131,0.7150000000000001,0.2044,-0.115,0.081,-0.073
1670342733.759998,-9.882,1.2750000000000001,3.4370000000000003,0.131,0.7162000000000001,0.2,0.006,0.002,-0.067
1670342733.799998,-9.694,0.177,3.993,0.13190000000000002,0.7156,0.20520000000000002,0.036000000000000004,-0.14300000000000002,-0.09
1670342733.839998,-10.19,0.583,3.8930000000000002,0.13040000000000002,0.7157,0.20670000000000002,-0.024,-0.058,-0.138
1670342733.879998,-9.722,0.362,3.56,0.129,0.7151000000000001,0.20450000000000002,-0.10200000000000001,0.058,-0.258
1670342733.919998,-9.545,-0.366,3.0260000000000002,0.1293,0.7243,0.2041,-0.167,0.08600000000000001,-0.25
1670342733.959998,-9.842,0.399,3.214,0.11660000000000001,0.7222000000000001,0.2107,-0.116,0.10300000000000001,-0.274
1670342733.999998,-9.5,-0.896,3.146,0.126,0.7292000000000001,0.19990000000000002,-0.18,-0.016,-0.23500000000000001
1670342734.039998,-10.035,-0.426,3.431,0.1269,0.7346,0.203,-0.14400000000000002,-0.08700000000000001,-0.184
1670342734.079998,-10.019,-1.0170000000000001,3.473,0.12660000000000002,0.7411,0.19940000000000002,-0.197,-0.186,-0.14100000000000001
1670342734.119998,-9.949,-1.871,3.035,0.124,0.7409,0.2015,-0.299,-0.219,-0.079
1670342734.159998,-10.185,0.077,3.233,0.1212,0.7447,0.2039,0.058,-0.158,0.025
1670342734.199998,-9.834,-0.513,3.274,0.11280000000000001,0.7401,0.1988,0.453,-0.211,0.111
1670342734.239998,-9.868,-0.229,3.614,0.11960000000000001,0.7351000000000001,0.2232,0.5720000000000001,-0.272,0.093
1670342734.279998,-9.519,-0.553,3.8240000000000003,0.1145,0.7306,0.2321,0.5750000000000001,-0.364,0.066
1670342734.319998,-9.315,-0.226,4.133,0.11420000000000001,0.7212000000000001,0.228,0.528,-0.369,0.078
1670342734.359998,-9.481,-0.506,4.191,0.112,0.7163,0.2363,0.31,-0.322,0.114
1670342734.399998,-9.163,-0.11900000000000001,4.791,0.11030000000000001,0.7146,0.2346,0.157,-0.324,0.153
1670342734.439998,-9.181000000000001,0.457,4.718,0.1096,0.7126,0.23450000000000001,0.07,-0.33,0.129
1670342734.479998,-9.588000000000001,1.109,4.727,0.10840000000000001,0.7106,0.24020000000000002,0.186,-0.169,0.093
1670342734.519998,-9.634,0.484,4.444,0.10550000000000001,0.7076,0.2417,0.339,-0.019,0.038
1670342734.559998,-9.555,0.11900000000000001,4.271,0.10600000000000001,0.7041000000000001,0.24430000000000002,0.194,0.111,-0.069
1670342734.599998,-9.157,0.387,4.364,0.11080000000000001,0.7046,0.2421,0.062,0.051000000000000004,-0.092
1670342734.639997,-9.063,0.532,4.421,0.1072,0.7058,0.2394,-0.033,0.05,-0.097
1670342734.679997,-9.349,0.249,4.212,0.11030000000000001,0.7098,0.2412,-0.067,0.02,-0.111
1670342734.719997,-9.554,0.14,4.283,0.1085,0.7107,0.24080000000000001,-0.124,-0.014,-0.06
1670342734.759997,-9.306000000000001,-0.025,4.361,0.1048,0.7115,0.2431,-0.149,-0.057,-0.062
1670342734.799997,-9.262,0.044,4.414,0.1105,0.7118,0.23850000000000002,-0.111,-0.084,-0.063
1670342734.839997,-9.393,0.063,4.469,0.10590000000000001,0.7134,0.2394,-0.015,-0.1,-0.046
1670342734.879997,-9.363,0.052000000000000005,4.487,0.1042,0.7130000000000001,0.2389,0.055,-0.093,-0.031
1670342734.919997,-9.39,-0.07,4.456,0.1056,0.7163,0.2442,0.107,-0.042,-0.046
1670342734.959997,-9.41,-0.021,4.454,0.1048,0.7129000000000001,0.2416,0.097,-0.012,-0.024
1670342734.999997,-9.424,-0.084,4.434,0.0995,0.7127,0.2431,0.042,0.001,-0.013000000000000001
1670342735.039997,-9.397,-0.026000000000000002,4.364,0.1077,0.7143,0.24280000000000002,-0.017,0.036000000000000004,0.026000000000000002
1670342735.079997,-9.492,0.044,4.398,0.1058,0.7125,0.24250000000000002,-0.029,0.056,0.002
1670342735.119997,-9.401,0.038,4.388,0.1053,0.7147,0.2404,-0.009000000000000001,0.053,-0.024
1670342735.159997,-9.373,0.08,4.367,0.10690000000000001,0.7161000000000001,0.23850000000000002,0.031,0.048,-0.027
1670342735.199997,-9.35,-0.024,4.41,0.1061,0.7129000000000001,0.23850000000000002,0.042,-0.014,-0.02
1670342735.239997,-9.465,0.151,4.43,0.1106,0.7160000000000001,0.2396,0.059000000000000004,-0.015,-0.02
1670342735.279997,-9.389,0.026000000000000002,4.396,0.1072,0.7134,0.2406,0.047,-0.077,-0.031
1670342735.319997,-9.355,0.149,4.3420000000000005,0.1076,0.7126,0.24070000000000003,0.056,-0.063,0.016
1670342735.359997,-9.464,0.082,4.375,0.10690000000000001,0.7137,0.2422,0.068,-0.036000000000000004,0.008
1670342735.399997,-9.388,0.17,4.422,0.1052,0.7121000000000001,0.24250000000000002,0.061,-0.027,-0.002
1670342735.439997,-9.357,0.098,4.381,0.1058,0.7127,0.24200000000000002,0.056,-0.032,0.002
1670342735.479997,-9.366,0.062,4.4270000000000005,0.1082,0.7138,0.24400000000000002,0.039,-0.033,0.0
1670342735.519997,-9.336,0.136,4.551,0.1041,0.7127,0.2503,0.053,-0.021,-0.017
1670342735.5599968,-9.329,0.082,4.5120000000000005,0.1051,0.7101000000000001,0.24500000000000002,0.068,-0.009000000000000001,-0.018000000000000002
1670342735.599997,-9.366,0.134,4.557,0.1073,0.7097,0.2431,0.067,0.002,-0.005
1670342735.639997,-9.513,0.031,4.4190000000000005,0.10310000000000001,0.7101000000000001,0.24380000000000002,0.035,0.011,0.002
1670342735.679996,-9.489,0.135,4.253,0.1039,0.7107,0.24480000000000002,0.001,-0.005,-0.002
1670342735.719996,-9.365,0.098,4.269,0.0954,0.7057,0.2464,-0.012,-0.025,-0.015
1670342735.759996,-9.44,0.199,4.34,0.09770000000000001,0.7102,0.24180000000000001,-0.006,-0.035,-0.001
1670342735.799996,-9.477,0.183,4.3420000000000005,0.10250000000000001,0.7095,0.24400000000000002,-0.001,-0.038,-0.012
1670342735.839996,-9.269,0.195,4.441,0.1073,0.7135,0.2414,0.025,-0.041,-0.032
1670342735.879996,-9.326,0.125,4.373,0.10250000000000001,0.7089000000000001,0.24280000000000002,0.027,-0.044,-0.023
1670342735.919996,-9.375,0.057,4.527,0.10590000000000001,0.7111000000000001,0.2446,0.014,-0.052000000000000005,-0.016
1670342735.959996,-9.338000000000001,0.132,4.567,0.0945,0.7105,0.2464,0.024,-0.036000000000000004,-0.015
1670342735.999996,-9.33,0.083,4.434,0.1029,0.7118,0.2426,0.023,-0.027,-0.027
1670342736.039996,-9.311,0.105,4.484,0.1034,0.7109000000000001,0.2412,0.025,-0.008,-0.006
1670342736.079996,-9.423,0.049,4.485,0.1056,0.7085,0.234,0.012,0.005,-0.003
1670342736.119996,-9.353,0.134,4.382,0.10640000000000001,0.7094,0.251,-0.003,0.021,0.01
1670342736.159996,-9.314,0.15,4.401,0.1034,0.7083,0.2359,0.02,0.03,0.0
1670342736.199996,-9.402000000000001,0.149,4.388,0.10650000000000001,0.7104,0.2519,0.027,0.011,-0.007
1670342736.239996,-9.373,0.132,4.472,0.101,0.7074,0.24810000000000001,0.023,-0.003,-0.007
1670342736.279996,-9.39,0.128,4.377,0.1046,0.7122,0.24200000000000002,0.004,-0.018000000000000002,-0.015
1670342736.319996,-9.428,0.179,4.491,0.10500000000000001,0.7099000000000001,0.2431,0.016,-0.031,-0.016
1670342736.359996,-9.448,0.12,4.375,0.1068,0.7108,0.2442,0.019,-0.027,-0.022
1670342736.399996,-9.396,0.028,4.345,0.10450000000000001,0.7127,0.2446,0.02,-0.018000000000000002,-0.024
1670342736.439996,-9.409,0.10200000000000001,4.457,0.1047,0.7109000000000001,0.2417,0.005,-0.031,-0.009000000000000001
1670342736.479996,-9.427,0.12,4.408,0.1039,0.7111000000000001,0.24400000000000002,0.013000000000000001,-0.031,-0.002
1670342736.519996,-9.327,0.084,4.413,0.10550000000000001,0.7127,0.2454,0.015,-0.005,0.0
1670342736.559996,-9.326,0.14100000000000001,4.428,0.1043,0.7099000000000001,0.2426,0.03,-0.001,-0.007
1670342736.5999959,-9.364,0.113,4.454,0.10360000000000001,0.7105,0.2449,0.027,-0.009000000000000001,-0.002
1670342736.639996,-9.393,0.15,4.53,0.1063,0.7117,0.2401,0.023,-0.016,-0.01
1670342736.679996,-9.4,0.152,4.448,0.10540000000000001,0.7090000000000001,0.2421,0.032,-0.021,-0.014
1670342736.719995,-9.36,0.064,4.449,0.10550000000000001,0.7118,0.24250000000000002,0.016,-0.021,-0.014
1670342736.759995,-9.432,0.192,4.43,0.10260000000000001,0.7121000000000001,0.24330000000000002,0.016,-0.021,-0.011
1670342736.799995,-9.412,0.14300000000000002,4.394,0.1056,0.7123,0.24070000000000003,0.012,-0.005,0.001
1670342736.839995,-9.375,0.166,4.412,0.1072,0.7130000000000001,0.2419,0.023,-0.008,-0.003
1670342736.879995,-9.39,0.137,4.347,0.10250000000000001,0.7080000000000001,0.24200000000000002,0.014,-0.015,-0.004
1670342736.919995,-9.346,0.164,4.445,0.1042,0.7108,0.24070000000000003,0.021,-0.022,-0.022
1670342736.959995,-9.366,0.128,4.462,0.10640000000000001,0.7113,0.2452,0.023,-0.031,-0.032
1670342736.999995,-9.373,0.057,4.425,0.09670000000000001,0.7093,0.2495,0.01,-0.037,-0.025
1670342737.039995,-9.366,0.14400000000000002,4.469,0.1053,0.7129000000000001,0.24280000000000002,0.001,-0.028,-0.011
1670342737.079995,-9.392,0.112,4.474,0.1056,0.7110000000000001,0.2452,0.016,-0.01,-0.007
1670342737.119995,-9.401,0.135,4.495,0.1037,0.7119000000000001,0.2436,0.038,0.001,-0.007
1670342737.159995,-9.366,0.08,4.445,0.1066,0.7126,0.2437,0.033,0.001,-0.007
1670342737.199995,-9.313,-0.001,4.423,0.1047,0.7107,0.2442,0.014,0.0,0.002
1670342737.239995,-9.451,0.159,4.433,0.0896,0.7072,0.2446,0.024,-0.003,0.022
1670342737.279995,-9.474,0.135,4.456,0.10360000000000001,0.7124,0.24630000000000002,0.03,0.002,0.0
1670342737.319995,-9.318,0.162,4.406,0.1052,0.7124,0.24430000000000002,0.04,-0.007,-0.01
1670342737.359995,-9.352,0.14400000000000002,4.323,0.10550000000000001,0.7103,0.2434,0.024,-0.023,-0.006
1670342737.3999949,-9.419,0.148,4.439,0.10890000000000001,0.7135,0.2461,0.019,-0.027,-0.014
1670342737.439995,-9.456,0.183,4.408,0.1058,0.7118,0.24330000000000002,0.025,-0.024,-0.02
1670342737.479995,-9.33,0.101,4.4750000000000005,0.1051,0.7118,0.2416,0.025,-0.028,-0.027
1670342737.519995,-9.304,0.125,4.412,0.10260000000000001,0.7099000000000001,0.2466,0.022,-0.027,-0.004
1670342737.559995,-9.388,0.069,4.441,0.1062,0.7092,0.2421,0.016,-0.01,-0.001
1670342737.599995,-9.344,0.186,4.462,0.1053,0.7076,0.2417,0.008,-0.004,0.0
1670342737.6399949,-9.331,0.14300000000000002,4.434,0.1051,0.7137,0.2439,0.018000000000000002,-0.008,-0.004
1670342737.679995,-9.336,0.121,4.485,0.10640000000000001,0.7107,0.2429,0.025,-0.014,-0.012
1670342737.719995,-9.343,0.14300000000000002,4.433,0.099,0.7104,0.2442,0.022,-0.014,-0.009000000000000001
1670342737.759995,-9.371,0.11,4.418,0.1053,0.7116,0.2452,0.024,-0.016,-0.011
1670342737.799995,-9.384,0.114,4.381,0.1032,0.7099000000000001,0.2422,0.017,-0.009000000000000001,-0.002
1670342737.839994,-9.4,0.155,4.404,0.1048,0.7085,0.2439,0.018000000000000002,-0.008,-0.002
1670342737.879994,-9.398,0.156,4.376,0.1041,0.7099000000000001,0.2447,0.024,-0.002,-0.008
1670342737.919994,-9.374,0.116,4.381,0.1042,0.7121000000000001,0.24070000000000003,0.009000000000000001,-0.012,-0.004
1670342737.959994,-9.335,0.114,4.414,0.1022,0.7094,0.2514,0.009000000000000001,-0.018000000000000002,-0.004
1670342737.999994,-9.38,0.17400000000000002,4.416,0.1062,0.7097,0.23820000000000002,0.021,-0.022,-0.012
1670342738.039994,-9.378,0.156,4.534,0.1037,0.7079000000000001,0.22060000000000002,0.029,-0.025,-0.022
1670342738.079994,-9.346,0.068,4.4430000000000005,0.1039,0.7111000000000001,0.2429,0.023,-0.021,-0.013000000000000001
1670342738.119994,-9.41,0.21,4.424,0.1039,0.7101000000000001,0.24080000000000001,0.016,-0.024,-0.007
1670342738.159994,-9.493,0.124,4.429,0.1058,0.7090000000000001,0.24430000000000002,0.032,-0.006,0.0
1670342738.1999938,-9.359,0.221,4.416,0.10300000000000001,0.7097,0.2427,0.031,0.002,-0.014
1670342738.239994,-9.338000000000001,0.122,4.388,0.1067,0.7078,0.2424,0.019,0.001,-0.007
1670342738.279994,-9.394,0.14200000000000002,4.336,0.10590000000000001,0.7110000000000001,0.2426,0.001,-0.009000000000000001,-0.003
1670342738.319994,-9.393,0.189,4.382,0.1046,0.7104,0.24430000000000002,0.009000000000000001,-0.024,-0.018000000000000002
1670342738.359994,-9.364,0.101,4.337,0.10060000000000001,0.7079000000000001,0.24250000000000002,0.02,-0.018000000000000002,-0.025
1670342738.399994,-9.329,0.14400000000000002,4.4,0.10550000000000001,0.7103,0.24350000000000002,0.007,-0.015,-0.021
1670342738.4399939,-9.424,0.082,4.438,0.1027,0.7124,0.24200000000000002,0.008,-0.02,-0.007
1670342738.479994,-9.424,0.194,4.391,0.1041,0.7098,0.2431,0.017,-0.013000000000000001,-0.004
1670342738.519994,-9.345,0.18,4.588,0.1067,0.7107,0.24150000000000002,0.034,-0.007,0.001
1670342738.559994,-9.378,0.073,4.43,0.1033,0.7098,0.24300000000000002,0.0,0.024,0.023
1670342738.599994,-9.414,0.179,4.382,0.10600000000000001,0.7100000000000001,0.2414,-0.001,0.002,0.024
1670342738.639994,-9.381,0.167,4.4,0.1087,0.7094,0.2414,0.03,-0.012,-0.013000000000000001
1670342738.6799939,-9.377,0.167,4.399,0.1053,0.7096,0.24180000000000001,0.027,-0.01,-0.01
1670342738.719994,-9.378,0.138,4.323,0.1061,0.7117,0.2442,0.061,-0.07,-0.04
1670342738.759994,-9.397,0.20800000000000002,4.393,0.1078,0.7080000000000001,0.24400000000000002,0.059000000000000004,-0.023,-0.024
1670342738.799994,-9.336,0.10400000000000001,4.473,0.1034,0.7077,0.2431,0.031,-0.023,-0.018000000000000002
1670342738.839994,-9.438,0.158,4.393,0.1057,0.7107,0.2431,0.021,-0.019,0.003
1670342738.879993,-9.394,0.198,4.4750000000000005,0.1037,0.7091000000000001,0.2421,0.023,-0.022,-0.002
1670342738.919993,-9.346,0.214,4.4350000000000005,0.10360000000000001,0.7096,0.24100000000000002,0.038,-0.021,-0.023
1670342738.959993,-9.437,0.196,4.348,0.1047,0.7055,0.2421,0.034,-0.032,-0.02
1670342738.9999928,-9.351,0.162,4.458,0.1062,0.7091000000000001,0.24450000000000002,0.023,-0.023,-0.017
1670342739.039993,-9.355,0.14,4.486,0.10310000000000001,0.7080000000000001,0.2431,0.005,-0.025,-0.019
1670342739.079993,-9.375,0.202,4.4670000000000005,0.1063,0.7100000000000001,0.2461,0.005,-0.023,-0.013000000000000001
1670342739.119993,-9.454,0.247,4.418,0.1047,0.7102,0.2437,0.023,-0.008,-0.01
1670342739.159993,-9.399000000000001,0.105,4.328,0.10640000000000001,0.7076,0.24330000000000002,0.022,0.0,-0.008
1670342739.199993,-9.317,0.223,4.445,0.1062,0.7077,0.2422,0.02,-0.002,-0.018000000000000002
1670342739.2399929,-9.385,0.17,4.409,0.099,0.7087,0.24500000000000002,0.018000000000000002,-0.012,-0.015
1670342739.279993,-9.399000000000001,0.156,4.47,0.1056,0.7102,0.24180000000000001,0.014,-0.022,-0.029
1670342739.319993,-9.367,0.201,4.493,0.10890000000000001,0.7110000000000001,0.24400000000000002,0.01,-0.029,-0.033
1670342739.359993,-9.421,0.073,4.397,0.10500000000000001,0.7099000000000001,0.24530000000000002,0.002,-0.024,-0.022
1670342739.399993,-9.378,0.247,4.47,0.1044,0.7092,0.2432,0.007,-0.018000000000000002,-0.011
1670342739.439993,-9.416,0.093,4.399,0.10590000000000001,0.7097,0.24400000000000002,0.02,-0.012,-0.005
1670342739.4799929,-9.392,0.20700000000000002,4.432,0.1015,0.7091000000000001,0.2439,0.026000000000000002,-0.007,0.001
1670342739.519993,-9.338000000000001,0.177,4.44,0.1041,0.7112,0.24400000000000002,0.028,-0.012,0.001
1670342739.559993,-9.367,0.16,4.496,0.1057,0.7092,0.2459,0.034,-0.018000000000000002,-0.013000000000000001
1670342739.599993,-9.389,0.19,4.442,0.1053,0.7074,0.2417,0.033,-0.021,-0.017
1670342739.639993,-9.367,0.149,4.495,0.10840000000000001,0.7092,0.2441,0.024,-0.019,-0.013000000000000001
1670342739.679993,-9.354000000000001,0.179,4.48,0.1056,0.7079000000000001,0.2446,0.013000000000000001,-0.021,-0.016
1670342739.7199929,-9.384,0.17400000000000002,4.413,0.10020000000000001,0.7066,0.24760000000000001,0.023,-0.012,-0.019
1670342739.759993,-9.439,0.20400000000000001,4.4190000000000005,0.1042,0.7085,0.2576,0.029,-0.005,-0.02
1670342739.799993,-9.352,0.18,4.488,0.10260000000000001,0.7087,0.2642,0.02,0.0,-0.014
1670342739.839993,-9.324,0.167,4.442,0.1029,0.7093,0.232,0.017,-0.009000000000000001,-0.016
1670342739.879993,-9.418000000000001,0.188,4.439,0.1056,0.7074,0.2503,0.009000000000000001,-0.011,-0.015
1670342739.919992,-9.326,0.156,4.442,0.1022,0.7063,0.2485,0.015,-0.019,-0.019
1670342739.959992,-9.370000000000001,0.10400000000000001,4.371,0.1042,0.7073,0.2451,0.009000000000000001,-0.019,-0.02
1670342739.999992,-9.343,0.196,4.448,0.10600000000000001,0.7099000000000001,0.2457,0.01,-0.012,-0.013000000000000001
1670342740.0399919,-9.439,0.139,4.452,0.1034,0.7105,0.2434,0.023,-0.015,-0.011
1670342740.079992,-9.358,0.193,4.428,0.10590000000000001,0.7104,0.2454,0.03,-0.013000000000000001,-0.027
1670342740.119992,-9.372,0.082,4.415,0.1034,0.7083,0.2459,0.026000000000000002,-0.004,-0.026000000000000002
1670342740.159992,-9.412,0.124,4.4510000000000005,0.1048,0.7094,0.24230000000000002,0.009000000000000001,-0.01,-0.011
1670342740.199992,-9.405,0.161,4.463,0.10450000000000001,0.7104,0.24330000000000002,0.005,-0.01,-0.015
1670342740.239992,-9.372,0.113,4.414,0.1057,0.7106,0.24400000000000002,0.01,-0.013000000000000001,-0.024
1670342740.2799919,-9.364,0.099,4.37,0.1051,0.7112,0.2446,0.01,-0.019,-0.026000000000000002
1670342740.319992,-9.44,0.113,4.453,0.10400000000000001,0.7093,0.24400000000000002,0.012,-0.014,-0.012
1670342740.359992,-9.382,0.145,4.429,0.10310000000000001,0.7108,0.2442,0.019,-0.01,-0.008
1670342740.399992,-9.357,0.155,4.442,0.1061,0.7107,0.24280000000000002,0.03,-0.008,-0.003
1670342740.439992,-9.329,0.128,4.478,0.10540000000000001,0.7096,0.2447,0.031,-0.023,-0.013000000000000001
1670342740.479992,-9.365,0.132,4.437,0.1034,0.7113,0.2467,0.03,-0.023,-0.021
1670342740.5199919,-9.371,0.083,4.382,0.1042,0.7125,0.2454,0.02,-0.027,-0.019
1670342740.559992,-9.369,0.099,4.473,0.1028,0.7116,0.24530000000000002,0.008,-0.02,-0.016
1670342740.599992,-9.345,0.121,4.437,0.1033,0.7102,0.2437,0.006,-0.013000000000000001,-0.012
1670342740.639992,-9.375,0.14400000000000002,4.484,0.1033,0.7107,0.2452,0.001,-0.01,-0.009000000000000001
1670342740.679992,-9.361,0.129,4.515,0.1037,0.7124,0.2434,0.017,-0.009000000000000001,-0.007
1670342740.719992,-9.375,0.128,4.515,0.1042,0.7110000000000001,0.24550000000000002,0.004,-0.01,-0.009000000000000001
1670342740.759992,-9.371,0.10300000000000001,4.359,0.1057,0.7090000000000001,0.24600000000000002,0.023,-0.009000000000000001,-0.013000000000000001
1670342740.799992,-9.355,0.135,4.45,0.1042,0.7094,0.24650000000000002,0.026000000000000002,-0.016,-0.015
1670342740.839992,-9.367,0.117,4.458,0.10500000000000001,0.7109000000000001,0.2436,0.024,-0.016,-0.01
1670342740.879992,-9.312,0.055,4.454,0.1052,0.7104,0.2439,0.01,-0.025,-0.011
1670342740.919992,-9.436,0.108,4.346,0.1038,0.7100000000000001,0.24600000000000002,0.0,-0.015,0.008
1670342740.959991,-9.471,0.183,4.533,0.1046,0.7104,0.2469,0.018000000000000002,-0.004,0.001
1670342740.999991,-9.324,0.10200000000000001,4.469,0.1058,0.7091000000000001,0.24400000000000002,0.025,0.003,-0.017
1670342741.039991,-9.314,0.154,4.4430000000000005,0.1044,0.7078,0.24760000000000001,0.033,-0.007,-0.011
1670342741.0799909,-9.385,0.084,4.399,0.1044,0.7097,0.2456,0.007,-0.021,-0.008
1670342741.119991,-9.368,0.109,4.4670000000000005,0.1046,0.7087,0.2412,0.01,-0.021,-0.017
1670342741.159991,-9.363,0.133,4.463,0.09620000000000001,0.7069000000000001,0.2541,0.015,-0.027,-0.031
1670342741.199991,-9.406,0.07100000000000001,4.36,0.1042,0.7102,0.2446,0.003,-0.027,-0.019
1670342741.239991,-9.449,0.153,4.447,0.1022,0.7105,0.2457,0.011,-0.023,-0.004
1670342741.279991,-9.4,0.139,4.445,0.1041,0.7075,0.24330000000000002,0.02,-0.012,0.002
1670342741.3199909,-9.364,0.159,4.3790000000000004,0.1053,0.7106,0.2422,0.027,-0.015,0.0
1670342741.359991,-9.311,0.116,4.521,0.1034,0.7129000000000001,0.2451,0.031,-0.024,-0.014
1670342741.399991,-9.389,0.132,4.398,0.09720000000000001,0.7082,0.24150000000000002,0.027,-0.021,-0.015
1670342741.439991,-9.346,0.12,4.5040000000000004,0.10550000000000001,0.7118,0.24430000000000002,0.02,-0.026000000000000002,-0.022
1670342741.479991,-9.4,0.092,4.446,0.1029,0.7077,0.2539,0.012,-0.027,-0.018000000000000002
1670342741.519991,-9.375,0.134,4.478,0.1034,0.7104,0.2462,0.006,-0.016,-0.008
1670342741.559991,-9.377,0.113,4.424,0.1044,0.7148,0.2456,0.008,-0.006,-0.006
1670342741.599991,-9.372,0.129,4.525,0.1024,0.7114,0.2146,0.008,0.002,-0.005
1670342741.639991,-9.377,0.14,4.5,0.1014,0.7104,0.231,0.018000000000000002,-0.003,-0.002
1670342741.679991,-9.378,0.098,4.446,0.10250000000000001,0.7068,0.2551,0.019,0.001,-0.008
1670342741.719991,-9.370000000000001,0.056,4.414,0.1056,0.7106,0.2459,0.026000000000000002,-0.007,-0.011
1670342741.759991,-9.399000000000001,0.109,4.421,0.1044,0.7119000000000001,0.2523,0.013000000000000001,-0.016,-0.021
1670342741.799991,-9.375,0.17400000000000002,4.488,0.1037,0.7129000000000001,0.24480000000000002,0.018000000000000002,-0.02,0.003
1670342741.839991,-9.414,0.054,4.405,0.1047,0.7117,0.2464,0.012,0.003,0.0
1670342741.879991,-9.351,0.164,4.38,0.10590000000000001,0.7084,0.24280000000000002,0.017,-0.002,-0.003
1670342741.919991,-9.367,0.114,4.4350000000000005,0.1015,0.7081000000000001,0.2421,0.016,-0.009000000000000001,-0.002
1670342741.959991,-9.372,0.074,4.445,0.10020000000000001,0.7099000000000001,0.24400000000000002,0.017,-0.017,-0.01
1670342741.99999,-9.445,0.152,4.488,0.1053,0.7113,0.2427,0.019,-0.019,-0.018000000000000002
1670342742.03999,-9.425,0.037,4.448,0.1046,0.7123,0.2424,0.011,-0.019,-0.024
1670342742.07999,-9.358,0.17200000000000001,4.46,0.1053,0.7124,0.24580000000000002,0.002,-0.021,-0.008
1670342742.1199899,-9.395,0.067,4.388,0.1056,0.7099000000000001,0.2447,0.013000000000000001,-0.017,0.0
1670342742.15999,-9.414,0.177,4.452,0.10500000000000001,0.7085,0.2432,0.031,-0.003,-0.011
1670342742.19999,-9.336,0.092,4.455,0.1053,0.7111000000000001,0.24700000000000003,0.037,-0.013000000000000001,-0.002
1670342742.23999,-9.436,0.124,4.414,0.1057,0.7113,0.2437,0.036000000000000004,-0.025,-0.013000000000000001
1670342742.27999,-9.432,0.135,4.397,0.1058,0.7110000000000001,0.2429,0.018000000000000002,-0.03,-0.012
1670342742.31999,-9.393,0.099,4.486,0.1058,0.7107,0.2459,0.021,-0.035,-0.014
1670342742.35999,-9.391,0.109,4.3950000000000005,0.1028,0.7112,0.2439,0.007,-0.032,-0.011
1670342742.39999,-9.365,0.107,4.378,0.10400000000000001,0.7102,0.2436,0.009000000000000001,-0.021,-0.01
1670342742.43999,-9.370000000000001,0.121,4.447,0.10450000000000001,0.7106,0.24450000000000002,0.031,-0.01,-0.017
1670342742.47999,-9.43,0.108,4.446,0.1022,0.7090000000000001,0.2451,0.022,-0.01,-0.002
1670342742.51999,-9.4,0.094,4.453,0.10500000000000001,0.7119000000000001,0.2479,0.018000000000000002,-0.011,-0.004
1670342742.55999,-9.321,0.068,4.476,0.10490000000000001,0.7092,0.2442,0.008,-0.015,-0.009000000000000001
1670342742.59999,-9.389,0.14300000000000002,4.473,0.10500000000000001,0.7104,0.2457,0.021,-0.024,-0.013000000000000001
1670342742.63999,-9.449,0.20500000000000002,4.53,0.1032,0.7096,0.2422,0.032,-0.014,-0.002
1670342742.67999,-9.376,0.039,4.39,0.1047,0.7099000000000001,0.24430000000000002,0.029,-0.002,-0.006
1670342742.71999,-9.349,0.155,4.3340000000000005,0.0998,0.7098,0.2437,0.026000000000000002,-0.008,-0.004
1670342742.75999,-9.427,0.109,4.339,0.1034,0.7094,0.2461,0.016,-0.009000000000000001,0.0
1670342742.79999,-9.388,0.12,4.448,0.1039,0.7095,0.24710000000000001,0.025,-0.015,-0.021
1670342742.83999,-9.42,0.149,4.43,0.10450000000000001,0.7096,0.24580000000000002,0.015,-0.014,-0.023
1670342742.87999,-9.411,0.017,4.361,0.10450000000000001,0.7085,0.2454,0.001,-0.009000000000000001,-0.012
1670342742.91999,-9.393,0.199,4.438,0.1039,0.7134,0.2461,0.004,-0.016,-0.011
1670342742.95999,-9.399000000000001,0.07,4.433,0.10360000000000001,0.7088,0.2432,0.016,-0.005,-0.008
1670342742.99999,-9.361,0.14,4.495,0.10550000000000001,0.7093,0.24550000000000002,0.03,0.0,-0.007
1670342743.039989,-9.4,0.113,4.466,0.1053,0.7091000000000001,0.24300000000000002,0.027,-0.014,-0.007
1670342743.079989,-9.391,0.114,4.434,0.10400000000000001,0.7116,0.2451,0.025,-0.012,-0.014
1670342743.119989,-9.367,0.15,4.5040000000000004,0.10500000000000001,0.7121000000000001,0.2441,0.025,-0.016,-0.021
1670342743.1599889,-9.374,0.084,4.44,0.10200000000000001,0.7108,0.2506,0.026000000000000002,-0.012,-0.014
1670342743.199989,-9.373,0.10400000000000001,4.461,0.1029,0.7114,0.2451,0.009000000000000001,-0.007,-0.01
1670342743.239989,-9.354000000000001,0.123,4.434,0.1042,0.7104,0.24650000000000002,0.011,-0.01,-0.009000000000000001
1670342743.279989,-9.418000000000001,0.108,4.406,0.1037,0.7099000000000001,0.24300000000000002,0.023,-0.003,-0.017
1670342743.319989,-9.383000000000001,0.10400000000000001,4.416,0.1056,0.7121000000000001,0.2442,0.026000000000000002,-0.006,-0.018000000000000002
1670342743.359989,-9.425,0.127,4.399,0.1033,0.7098,0.24430000000000002,0.004,-0.011,-0.018000000000000002
1670342743.399989,-9.344,0.051000000000000004,4.353,0.10060000000000001,0.7092,0.2501,-0.006,-0.013000000000000001,-0.003
1670342743.439989,-9.358,0.165,4.4350000000000005,0.1039,0.7102,0.2316,0.023,-0.015,0.0
1670342743.479989,-9.494,0.10400000000000001,4.446,0.09620000000000001,0.7102,0.2686,0.037,-0.011,-0.022
1670342743.519989,-9.363,0.13,4.545,0.09820000000000001,0.7109000000000001,0.23270000000000002,0.034,-0.011,-0.027
1670342743.559989,-9.385,0.068,4.439,0.1033,0.7115,0.24050000000000002,0.016,-0.02,-0.01
1670342743.599989,-9.409,0.126,4.406,0.1033,0.7118,0.2426,0.009000000000000001,-0.015,-0.01
1670342743.639989,-9.363,0.032,4.4110000000000005,0.1037,0.7132000000000001,0.2436,0.017,-0.012,-0.015
1670342743.679989,-9.393,0.133,4.386,0.094,0.7083,0.2429,0.017,-0.018000000000000002,-0.017
1670342743.719989,-9.426,0.024,4.3500000000000005,0.1028,0.7110000000000001,0.24180000000000001,0.014,-0.011,-0.01
1670342743.759989,-9.408,0.125,4.394,0.09870000000000001,0.7121000000000001,0.24600000000000002,0.009000000000000001,-0.003,0.001
1670342743.799989,-9.36,0.115,4.347,0.1047,0.7112,0.2431,0.021,-0.004,0.001
1670342743.839989,-9.386000000000001,0.123,4.45,0.10550000000000001,0.7112,0.24350000000000002,0.027,-0.021,-0.005
1670342743.879989,-9.431000000000001,0.113,4.315,0.1063,0.7123,0.2464,0.029,-0.023,-0.013000000000000001
1670342743.919989,-9.414,0.07100000000000001,4.369,0.10500000000000001,0.7113,0.24430000000000002,0.025,-0.029,-0.02
1670342743.959989,-9.4,0.082,4.37,0.1029,0.7088,0.2432,0.018000000000000002,-0.028,-0.017
1670342743.999989,-9.384,0.121,4.452,0.1041,0.7108,0.2426,0.006,-0.025,-0.01
1670342744.039989,-9.448,0.12,4.388,0.1014,0.7121000000000001,0.2421,0.019,-0.016,-0.01
1670342744.079988,-9.396,0.12,4.4,0.1051,0.7099000000000001,0.2427,0.025,-0.009000000000000001,-0.012
1670342744.119988,-9.403,0.099,4.416,0.1047,0.7094,0.2442,0.027,-0.013000000000000001,-0.018000000000000002
1670342744.159988,-9.375,0.033,4.343,0.1062,0.7116,0.2467,0.009000000000000001,-0.027,-0.018000000000000002
1670342744.199988,-9.303,0.114,4.472,0.1052,0.7112,0.24650000000000002,0.011,-0.023,0.0
1670342744.239988,-9.41,0.085,4.473,0.10500000000000001,0.7108,0.2434,0.026000000000000002,-0.009000000000000001,-0.013000000000000001
1670342744.279988,-9.399000000000001,0.147,4.3790000000000004,0.10360000000000001,0.7104,0.2432,0.043000000000000003,-0.003,-0.015
1670342744.319988,-9.398,0.047,4.312,0.10360000000000001,0.7097,0.24180000000000001,0.02,-0.02,-0.008
1670342744.359988,-9.408,0.11,4.415,0.099,0.7109000000000001,0.2432,0.0,-0.022,0.002
1670342744.399988,-9.4,0.167,4.455,0.1034,0.7105,0.24200000000000002,0.022,-0.016,-0.015
1670342744.439988,-9.333,0.038,4.444,0.1028,0.7113,0.24450000000000002,0.02,-0.026000000000000002,-0.024
1670342744.479988,-9.327,0.067,4.386,0.1015,0.7104,0.24530000000000002,0.006,-0.029,-0.009000000000000001
1670342744.519988,-9.464,0.038,4.363,0.1023,0.7113,0.24070000000000003,0.002,-0.01,0.0
1670342744.559988,-9.381,0.161,4.469,0.1039,0.7094,0.24810000000000001,0.018000000000000002,-0.009000000000000001,-0.006
1670342744.599988,-9.329,0.082,4.428,0.1046,0.7097,0.2434,0.025,-0.014,0.001
1670342744.639988,-9.361,0.146,4.456,0.101,0.7106,0.2422,0.034,-0.012,-0.003
1670342744.679988,-9.406,0.098,4.402,0.1037,0.7107,0.2503,0.035,-0.025,-0.015
1670342744.719988,-9.373,0.09,4.466,0.1024,0.7110000000000001,0.2451,0.021,-0.023,-0.018000000000000002
1670342744.759988,-9.388,0.066,4.393,0.1028,0.7086,0.24450000000000002,0.004,-0.024,-0.005
1670342744.799988,-9.384,0.14400000000000002,4.4510000000000005,0.1061,0.7122,0.24130000000000001,0.012,-0.016,-0.012
1670342744.839988,-9.332,0.116,4.4190000000000005,0.1018,0.7112,0.2441,0.029,-0.012,-0.01
1670342744.879988,-9.370000000000001,0.079,4.414,0.10600000000000001,0.7116,0.2432,0.025,-0.013000000000000001,-0.012
1670342744.919988,-9.382,0.077,4.421,0.10010000000000001,0.7090000000000001,0.2514,0.014,-0.018000000000000002,-0.018000000000000002
1670342744.959988,-9.396,0.092,4.45,0.1012,0.7094,0.2434,0.008,-0.017,0.0
1670342744.999988,-9.434000000000001,0.17200000000000001,4.431,0.1019,0.7097,0.2457,0.022,-0.018000000000000002,-0.003
1670342745.039988,-9.392,0.025,4.424,0.10360000000000001,0.7108,0.2431,0.03,-0.004,-0.007
1670342745.079988,-9.382,0.14200000000000002,4.337,0.1044,0.7110000000000001,0.2434,0.024,-0.015,0.0
1670342745.119987,-9.357,0.093,4.436,0.1039,0.7105,0.24350000000000002,0.018000000000000002,-0.013000000000000001,0.002
1670342745.159987,-9.429,0.126,4.458,0.093,0.7076,0.2538,0.039,-0.016,-0.016
1670342745.199987,-9.414,0.17400000000000002,4.464,0.1039,0.7086,0.2437,0.04,-0.019,-0.023
1670342745.239987,-9.426,0.041,4.466,0.1057,0.7106,0.24530000000000002,0.012,-0.032,-0.006
1670342745.279987,-9.397,0.179,4.476,0.1061,0.7088,0.24230000000000002,0.012,-0.019,-0.007
1670342745.319987,-9.438,0.108,4.412,0.10200000000000001,0.7106,0.22840000000000002,0.018000000000000002,-0.009000000000000001,-0.002
1670342745.359987,-9.362,0.157,4.423,0.10200000000000001,0.7082,0.23950000000000002,0.031,-0.009000000000000001,-0.002
1670342745.399987,-9.393,0.135,4.357,0.08950000000000001,0.7083,0.23820000000000002,0.028,-0.008,-0.012
1670342745.439987,-9.372,0.099,4.461,0.1052,0.7098,0.2629,0.019,-0.015,-0.015
1670342745.479987,-9.412,0.084,4.425,0.10400000000000001,0.7082,0.2444,0.008,-0.028,-0.017
1670342745.519987,-9.321,0.14200000000000002,4.4,0.1066,0.7097,0.24680000000000002,0.007,-0.019,-0.014
1670342745.559987,-9.396,0.081,4.309,0.10490000000000001,0.7084,0.24380000000000002,0.008,-0.015,-0.013000000000000001
1670342745.599987,-9.375,0.101,4.4510000000000005,0.10110000000000001,0.7087,0.2474,0.018000000000000002,-0.003,-0.006
1670342745.639987,-9.345,0.111,4.471,0.10400000000000001,0.7113,0.2441,0.011,-0.01,-0.002
1670342745.679987,-9.399000000000001,0.07,4.4030000000000005,0.098,0.7086,0.2446,0.009000000000000001,-0.006,-0.007
1670342745.719987,-9.424,0.132,4.478,0.10450000000000001,0.7108,0.24630000000000002,0.011,-0.007,-0.001
1670342745.759987,-9.427,0.08600000000000001,4.36,0.1043,0.7119000000000001,0.2442,0.021,-0.01,0.001
1670342745.799987,-9.326,0.12,4.399,0.1062,0.7093,0.24350000000000002,0.023,-0.01,-0.012
1670342745.839987,-9.395,0.108,4.363,0.1027,0.7094,0.2432,0.019,-0.019,-0.012
1670342745.879987,-9.332,0.082,4.424,0.10540000000000001,0.7078,0.2464,0.025,-0.022,-0.003
1670342745.919987,-9.411,0.148,4.44,0.10590000000000001,0.7085,0.2427,0.031,-0.022,-0.012
1670342745.959987,-9.345,0.011,4.402,0.10300000000000001,0.7073,0.2439,0.032,-0.031,-0.021
1670342745.999987,-9.370000000000001,0.159,4.429,0.108,0.7091000000000001,0.24500000000000002,0.023,-0.031,-0.008
1670342746.0399868,-9.457,0.026000000000000002,4.373,0.1037,0.7105,0.2432,0.018000000000000002,-0.017,-0.012
1670342746.079987,-9.357,0.155,4.408,0.1019,0.7070000000000001,0.24400000000000002,0.027,-0.007,-0.003
1670342746.119987,-9.370000000000001,0.122,4.376,0.10260000000000001,0.7063,0.2457,0.015,-0.012,0.002
1670342746.159986,-9.411,0.145,4.375,0.1028,0.7104,0.24500000000000002,0.005,-0.021,-0.01
1670342746.199986,-9.372,0.15,4.405,0.09860000000000001,0.7107,0.24680000000000002,0.023,-0.025,-0.025
1670342746.239986,-9.33,0.084,4.4670000000000005,0.1048,0.7093,0.24350000000000002,0.019,-0.02,-0.019
1670342746.279986,-9.394,0.094,4.381,0.10360000000000001,0.7081000000000001,0.24530000000000002,0.007,-0.019,-0.012
1670342746.319986,-9.384,0.137,4.463,0.10020000000000001,0.7110000000000001,0.2437,0.007,-0.014,-0.006
1670342746.359986,-9.414,0.088,4.38,0.10260000000000001,0.7102,0.24250000000000002,0.021,-0.006,-0.01
1670342746.399986,-9.402000000000001,0.094,4.454,0.10490000000000001,0.7088,0.2422,0.013000000000000001,-0.004,-0.011
1670342746.439986,-9.345,0.065,4.409,0.10300000000000001,0.7096,0.24350000000000002,0.014,-0.006,-0.007
1670342746.479986,-9.364,0.07,4.377,0.1046,0.7118,0.24480000000000002,0.009000000000000001,-0.003,0.007
1670342746.519986,-9.381,0.117,4.418,0.1042,0.7102,0.24450000000000002,0.021,-0.018000000000000002,0.001
1670342746.559986,-9.417,0.074,4.44,0.1053,0.7104,0.2417,0.028,0.0,-0.004
1670342746.599986,-9.324,0.171,4.416,0.1075,0.7093,0.2446,0.027,-0.004,-0.004
1670342746.639986,-9.43,0.114,4.3420000000000005,0.1051,0.7091000000000001,0.2421,0.02,-0.02,0.0
1670342746.679986,-9.409,0.11900000000000001,4.324,0.10400000000000001,0.7091000000000001,0.2456,0.017,-0.02,-0.009000000000000001
1670342746.719986,-9.379,0.178,4.439,0.1053,0.7130000000000001,0.2431,0.029,-0.023,-0.019
1670342746.759986,-9.401,0.025,4.3870000000000005,0.1019,0.7089000000000001,0.2432,0.011,-0.03,-0.018000000000000002
1670342746.799986,-9.358,0.185,4.43,0.10310000000000001,0.7099000000000001,0.24350000000000002,0.009000000000000001,-0.023,-0.011
1670342746.8399858,-9.383000000000001,0.05,4.415,0.1061,0.7112,0.24550000000000002,0.01,-0.018000000000000002,-0.006
1670342746.879986,-9.373,0.161,4.422,0.1014,0.7105,0.24230000000000002,0.028,-0.019,-0.014
1670342746.919986,-9.381,0.14,4.425,0.0945,0.7071000000000001,0.24650000000000002,0.031,-0.017,-0.009000000000000001
1670342746.959986,-9.412,0.112,4.369,0.10060000000000001,0.7094,0.24250000000000002,0.025,-0.023,-0.013000000000000001
1670342746.999986,-9.411,0.152,4.466,0.1056,0.7082,0.2472,0.025,-0.023,-0.014
1670342747.039986,-9.368,0.117,4.5,0.10310000000000001,0.7105,0.2462,0.01,-0.023,-0.007
1670342747.0799859,-9.42,0.111,4.39,0.1019,0.7096,0.2429,0.013000000000000001,-0.018000000000000002,-0.004
1670342747.119986,-9.431000000000001,0.14400000000000002,4.461,0.1058,0.7102,0.24250000000000002,0.02,-0.003,-0.004
1670342747.159986,-9.436,0.148,4.329,0.0931,0.7100000000000001,0.2295,0.023,-0.008,-0.01
1670342747.199986,-9.377,0.123,4.457,0.1017,0.7063,0.2396,0.02,-0.004,-0.01
1670342747.239986,-9.395,0.083,4.439,0.1033,0.7110000000000001,0.24630000000000002,0.021,-0.015,-0.014
1670342747.279985,-9.335,0.046,4.479,0.10310000000000001,0.7071000000000001,0.2548,0.011,-0.016,-0.013000000000000001
1670342747.319985,-9.435,0.166,4.369,0.1044,0.7087,0.2437,0.012,-0.025,-0.01
1670342747.359985,-9.433,0.195,4.507,0.1039,0.7096,0.2437,0.029,-0.021,0.0
1670342747.399985,-9.356,0.135,4.456,0.1033,0.7088,0.2414,0.04,0.013000000000000001,-0.008
1670342747.439985,-9.35,0.11,4.321,0.10360000000000001,0.7101000000000001,0.24750000000000003,0.068,0.009000000000000001,-0.028
1670342747.479985,-9.328,0.044,4.373,0.1051,0.7069000000000001,0.2454,0.023,-0.01,-0.01
1670342747.519985,-9.378,0.146,4.311,0.1053,0.7083,0.2452,0.0,-0.005,-0.005
1670342747.559985,-9.434000000000001,0.135,4.361,0.1044,0.7074,0.2442,-0.007,-0.025,-0.009000000000000001
1670342747.599985,-9.44,0.101,4.46,0.1034,0.7124,0.24350000000000002,-0.002,-0.016,-0.014
1670342747.6399848,-9.44,0.213,4.481,0.1038,0.7079000000000001,0.2419,0.013000000000000001,-0.024,-0.019
1670342747.679985,-9.408,0.083,4.388,0.1032,0.7104,0.2442,0.021,-0.018000000000000002,-0.019
1670342747.719985,-9.372,0.11900000000000001,4.399,0.10300000000000001,0.7087,0.2441,0.017,-0.012,-0.003
1670342747.759985,-9.371,0.126,4.432,0.1056,0.7104,0.24430000000000002,0.031,-0.021,-0.009000000000000001
1670342747.799985,-9.324,0.136,4.444,0.10360000000000001,0.7109000000000001,0.2444,0.027,-0.028,-0.013000000000000001
1670342747.839985,-9.385,0.101,4.416,0.1028,0.7109000000000001,0.24730000000000002,0.032,-0.027,-0.018000000000000002
1670342747.8799849,-9.348,0.074,4.465,0.1033,0.7111000000000001,0.24450000000000002,0.023,-0.028,-0.013000000000000001
1670342747.919985,-9.375,0.123,4.445,0.10350000000000001,0.7077,0.2467,0.012,-0.022,-0.015
1670342747.959985,-9.364,0.117,4.355,0.1053,0.7101000000000001,0.24150000000000002,0.008,-0.016,-0.013000000000000001
1670342747.999985,-9.415000000000001,0.116,4.391,0.1019,0.7113,0.2441,0.019,-0.017,-0.015
1670342748.039985,-9.381,0.101,4.455,0.10590000000000001,0.7102,0.2482,0.01,-0.007,-0.007
1670342748.079985,-9.394,0.134,4.391,0.1053,0.7110000000000001,0.24050000000000002,0.017,-0.012,-0.007
1670342748.1199849,-9.391,0.125,4.4590000000000005,0.1032,0.7125,0.2454,0.02,-0.022,-0.014
1670342748.159985,-9.357,0.089,4.409,0.1033,0.7135,0.24530000000000002,0.026000000000000002,-0.021,-0.017
1670342748.199985,-9.403,0.093,4.421,0.1029,0.7123,0.24650000000000002,0.013000000000000001,-0.016,-0.013000000000000001
1670342748.239985,-9.401,0.108,4.496,0.10250000000000001,0.7084,0.2456,0.006,-0.015,-0.006
1670342748.279985,-9.363,0.216,4.5120000000000005,0.10350000000000001,0.7113,0.2447,0.029,-0.023,-0.004
1670342748.319984,-9.389,0.022,4.482,0.1033,0.7084,0.2439,0.032,-0.008,-0.017
1670342748.359984,-9.391,0.161,4.382,0.1029,0.7104,0.2454,0.026000000000000002,0.001,-0.015
1670342748.399984,-9.395,0.065,4.412,0.10360000000000001,0.7101000000000001,0.2449,0.005,-0.012,-0.006
1670342748.4399838,-9.358,0.101,4.408,0.09720000000000001,0.7096,0.2459,-0.009000000000000001,-0.017,-0.01
1670342748.479984,-9.336,0.162,4.549,0.1032,0.7094,0.2461,0.018000000000000002,-0.02,-0.015
1670342748.519984,-9.379,0.01,4.398,0.10590000000000001,0.7093,0.24550000000000002,0.017,-0.016,-0.019
1670342748.559984,-9.417,0.14400000000000002,4.436,0.1042,0.7111000000000001,0.2437,0.01,-0.014,-0.006
1670342748.599984,-9.39,0.029,4.37,0.1051,0.7113,0.2459,0.015,-0.005,-0.002
1670342748.639984,-9.321,0.149,4.487,0.1056,0.7090000000000001,0.2451,0.023,-0.007,-0.004
1670342748.6799839,-9.323,0.129,4.485,0.09720000000000001,0.7105,0.2461,0.026000000000000002,-0.018000000000000002,-0.01
1670342748.719984,-9.369,0.09,4.4030000000000005,0.1062,0.7104,0.2456,0.028,-0.029,-0.021
1670342748.759984,-9.373,0.10400000000000001,4.433,0.1062,0.7088,0.24600000000000002,0.016,-0.028,-0.018000000000000002
1670342748.799984,-9.377,0.059000000000000004,4.48,0.10310000000000001,0.7092,0.2459,0.005,-0.025,-0.017
1670342748.839984,-9.358,0.101,4.425,0.1037,0.7096,0.2464,0.008,-0.02,-0.016
1670342748.879984,-9.361,0.08700000000000001,4.412,0.10400000000000001,0.7105,0.2469,0.009000000000000001,-0.016,-0.014
1670342748.9199839,-9.324,0.101,4.442,0.1047,0.7108,0.249,0.007,-0.008,-0.012
1670342748.959984,-9.393,0.10200000000000001,4.431,0.1051,0.7115,0.24860000000000002,0.012,-0.007,-0.003
1670342748.999984,-9.346,0.084,4.447,0.1014,0.7124,0.25320000000000004,0.018000000000000002,-0.016,-0.013000000000000001
1670342749.039984,-9.354000000000001,0.08600000000000001,4.481,0.10260000000000001,0.7101000000000001,0.2541,0.019,-0.019,-0.015
1670342749.079984,-9.369,0.11,4.476,0.09970000000000001,0.7083,0.2606,0.021,-0.013000000000000001,-0.01
1670342749.119984,-9.290000000000001,0.046,4.486,0.0993,0.7097,0.25320000000000004,0.02,-0.025,-0.017
1670342749.1599839,-9.4,0.153,4.527,0.1034,0.7108,0.24580000000000002,0.012,-0.026000000000000002,-0.005
1670342749.199984,-9.508000000000001,0.116,4.46,0.10310000000000001,0.7115,0.24480000000000002,0.029,-0.021,-0.002
1670342749.239984,-9.268,0.075,4.392,0.10400000000000001,0.7101000000000001,0.24700000000000003,0.024,-0.001,-0.008
1670342749.279984,-9.329,0.10300000000000001,4.49,0.1033,0.7112,0.2456,0.013000000000000001,-0.006,-0.01
1670342749.319984,-9.377,0.113,4.469,0.10260000000000001,0.7102,0.2436,0.01,-0.011,-0.007
1670342749.359983,-9.395,0.109,4.466,0.10400000000000001,0.7115,0.2464,0.02,-0.014,-0.015
1670342749.399983,-9.33,0.074,4.509,0.10300000000000001,0.7123,0.2459,0.017,-0.016,-0.018000000000000002
1670342749.439983,-9.346,0.058,4.353,0.1034,0.7121000000000001,0.24450000000000002,0.002,-0.018000000000000002,-0.013000000000000001
1670342749.4799829,-9.387,0.052000000000000005,4.422,0.1044,0.7107,0.24330000000000002,0.007,-0.012,-0.006
1670342749.519983,-9.443,0.169,4.415,0.1046,0.7101000000000001,0.24500000000000002,0.023,0.001,-0.004
1670342749.559983,-9.312,0.101,4.371,0.1052,0.7079000000000001,0.2457,0.025,-0.002,-0.002
1670342749.599983,-9.368,0.11,4.495,0.1044,0.7104,0.2457,0.03,-0.008,-0.002
1670342749.639983,-9.369,0.11,4.491,0.1037,0.7097,0.24480000000000002,0.032,-0.023,-0.018000000000000002
1670342749.679983,-9.403,0.1,4.502,0.10310000000000001,0.7102,0.248,0.019,-0.03,-0.019
1670342749.7199829,-9.366,0.08600000000000001,4.506,0.1043,0.7110000000000001,0.2466,0.003,-0.031,-0.019
1670342749.759983,-9.397,0.09,4.421,0.1034,0.7094,0.24550000000000002,0.008,-0.021,-0.017
1670342749.799983,-9.4,0.076,4.442,0.10590000000000001,0.7104,0.24350000000000002,0.013000000000000001,-0.013000000000000001,-0.005
1670342749.839983,-9.408,0.099,4.422,0.1039,0.7119000000000001,0.2462,0.015,-0.009000000000000001,-0.012
1670342749.879983,-9.388,0.08600000000000001,4.5040000000000004,0.10450000000000001,0.7091000000000001,0.2464,0.024,-0.009000000000000001,-0.005
1670342749.919983,-9.381,0.096,4.466,0.1056,0.7066,0.24580000000000002,0.018000000000000002,-0.002,-0.001
1670342749.9599829,-9.314,0.117,4.538,0.1051,0.7121000000000001,0.24550000000000002,0.028,-0.008,-0.008
1670342749.999983,-9.32,0.064,4.476,0.1053,0.7082,0.2439,0.022,-0.016,-0.025
1670342750.039983,-9.406,0.131,4.458,0.1037,0.7099000000000001,0.24680000000000002,0.014,-0.023,-0.015
1670342750.079983,-9.424,0.121,4.464,0.1052,0.7106,0.24750000000000003,0.016,-0.015,-0.005
1670342750.119983,-9.370000000000001,0.06,4.414,0.10500000000000001,0.7097,0.2447,0.019,-0.007,0.0
1670342750.159983,-9.278,0.161,4.446,0.1056,0.7102,0.24650000000000002,0.021,-0.007,-0.008
1670342750.199983,-9.4,0.107,4.3790000000000004,0.1044,0.7104,0.2477,0.009000000000000001,-0.018000000000000002,-0.006
1670342750.239983,-9.411,0.101,4.455,0.1018,0.7080000000000001,0.2447,0.011,-0.018000000000000002,-0.013000000000000001
1670342750.279983,-9.332,0.11900000000000001,4.488,0.1038,0.7109000000000001,0.24760000000000001,0.013000000000000001,-0.029,-0.03
1670342750.319983,-9.436,0.032,4.405,0.1029,0.7100000000000001,0.2457,0.002,-0.021,-0.023
1670342750.359983,-9.403,0.133,4.447,0.091,0.7048,0.25,0.018000000000000002,-0.015,-0.01
1670342750.399982,-9.4,0.095,4.532,0.1047,0.7094,0.24710000000000001,0.019,-0.009000000000000001,-0.003
1670342750.439982,-9.327,0.123,4.501,0.10250000000000001,0.7098,0.24880000000000002,0.027,-0.005,0.008
1670342750.479982,-9.375,0.075,4.392,0.1033,0.7097,0.2459,0.027,-0.017,-0.008
1670342750.5199819,-9.411,0.14100000000000001,4.454,0.10550000000000001,0.7101000000000001,0.24650000000000002,0.027,-0.021,-0.01
1670342750.559982,-9.405,0.093,4.445,0.1051,0.7094,0.24750000000000003,0.025,-0.026000000000000002,-0.015
1670342750.599982,-9.342,0.077,4.437,0.10010000000000001,0.7105,0.24760000000000001,0.012,-0.028,-0.006
1670342750.639982,-9.370000000000001,0.094,4.454,0.1041,0.7098,0.2484,0.017,-0.018000000000000002,-0.007
1670342750.679982,-9.327,0.101,4.454,0.10060000000000001,0.7094,0.24860000000000002,0.016,-0.012,-0.009000000000000001
1670342750.719982,-9.366,0.106,4.513,0.1051,0.7092,0.2457,0.025,-0.01,-0.007
1670342750.7599819,-9.351,0.106,4.557,0.1028,0.7111000000000001,0.24700000000000003,0.012,-0.007,-0.005
1670342750.799982,-9.324,0.121,4.463,0.1039,0.7102,0.24500000000000002,0.018000000000000002,-0.009000000000000001,-0.005
1670342750.839982,-9.34,0.093,4.466,0.1033,0.7063,0.233,0.025,-0.015,-0.018000000000000002
1670342750.879982,-9.302,0.063,4.485,0.10400000000000001,0.7099000000000001,0.23390000000000002,0.015,-0.022,-0.019
1670342750.919982,-9.351,0.181,4.499,0.1019,0.7090000000000001,0.23340000000000002,0.016,-0.022,0.0
1670342750.959982,-9.335,0.018000000000000002,4.389,0.10260000000000001,0.7100000000000001,0.24100000000000002,0.023,-0.004,-0.006
1670342750.9999819,-9.349,0.131,4.381,0.1048,0.7079000000000001,0.24500000000000002,0.023,-0.004,-0.015
1670342751.039982,-9.394,0.08700000000000001,4.39,0.10360000000000001,0.7110000000000001,0.24480000000000002,0.015,-0.009000000000000001,0.004
1670342751.079982,-9.437,0.136,4.466,0.10500000000000001,0.7106,0.24760000000000001,0.008,-0.005,-0.006
1670342751.119982,-9.431000000000001,0.024,4.473,0.1062,0.7126,0.24000000000000002,-0.034,0.029,0.021
1670342751.159982,-9.428,0.106,4.399,0.1041,0.7090000000000001,0.2424,-0.027,0.028,0.016
1670342751.199982,-9.311,0.21,4.375,0.1056,0.7104,0.2439,0.017,-0.006,0.01
1670342751.239982,-9.411,0.101,4.424,0.10450000000000001,0.7108,0.24350000000000002,0.047,-0.018000000000000002,-0.024
1670342751.279982,-9.433,0.168,4.421,0.1037,0.7076,0.2446,0.065,-0.062,-0.055
1670342751.319982,-9.276,0.043000000000000003,4.405,0.1057,0.7094,0.24530000000000002,0.052000000000000005,-0.031,-0.019
1670342751.359982,-9.42,0.184,4.394,0.10540000000000001,0.7096,0.2434,0.031,-0.041,-0.011
1670342751.399982,-9.367,0.116,4.437,0.1034,0.7102,0.25,0.027,-0.028,-0.014
1670342751.439981,-9.393,0.131,4.439,0.10500000000000001,0.7076,0.24780000000000002,0.026000000000000002,-0.029,-0.029
1670342751.479981,-9.388,0.125,4.424,0.10310000000000001,0.7108,0.24380000000000002,0.009000000000000001,-0.025,-0.012
1670342751.519981,-9.367,0.10400000000000001,4.496,0.10540000000000001,0.7064,0.2462,0.012,-0.024,-0.015
1670342751.5599809,-9.368,0.145,4.502,0.1037,0.7084,0.2449,0.019,-0.014,-0.016
1670342751.599981,-9.370000000000001,0.121,4.495,0.1028,0.7108,0.2446,0.026000000000000002,-0.005,-0.017
1670342751.639981,-9.332,0.10300000000000001,4.39,0.1027,0.7087,0.248,0.018000000000000002,-0.01,-0.017
1670342751.679981,-9.329,0.089,4.404,0.10400000000000001,0.7106,0.24550000000000002,0.019,-0.017,-0.024
1670342751.719981,-9.39,0.051000000000000004,4.442,0.10260000000000001,0.7078,0.2459,0.011,-0.009000000000000001,-0.026000000000000002
1670342751.759981,-9.435,0.099,4.371,0.10400000000000001,0.7119000000000001,0.24780000000000002,0.008,-0.015,-0.013000000000000001
1670342751.7999809,-9.392,0.189,4.517,0.1028,0.7090000000000001,0.2434,0.017,-0.021,-0.006
1670342751.839981,-9.378,0.057,4.478,0.10360000000000001,0.7097,0.24500000000000002,0.03,-0.011,-0.019
1670342751.879981,-9.285,0.092,4.457,0.1023,0.7106,0.24530000000000002,0.03,-0.013000000000000001,-0.017
1670342751.919981,-9.436,0.075,4.4030000000000005,0.1039,0.7098,0.24810000000000001,0.011,-0.015,-0.004
1670342751.959981,-9.391,0.07100000000000001,4.41,0.1017,0.7098,0.2442,0.013000000000000001,-0.019,-0.01
1670342751.999981,-9.368,0.139,4.542,0.0994,0.7113,0.24180000000000001,0.018000000000000002,-0.01,-0.015
1670342752.039981,-9.369,0.023,4.466,0.10300000000000001,0.7093,0.2451,0.014,-0.012,-0.009000000000000001
1670342752.079981,-9.411,0.11900000000000001,4.421,0.1038,0.7118,0.24630000000000002,0.016,-0.015,-0.006
1670342752.119981,-9.44,0.074,4.386,0.10590000000000001,0.7093,0.2487,0.013000000000000001,-0.01,0.0
1670342752.159981,-9.391,0.137,4.396,0.1028,0.7063,0.2414,0.032,-0.003,0.004
1670342752.199981,-9.343,0.126,4.446,0.1047,0.7099000000000001,0.24730000000000002,0.031,-0.015,-0.001
1670342752.239981,-9.382,0.14,4.478,0.1068,0.7082,0.2446,0.03,-0.022,-0.014
1670342752.279981,-9.372,0.111,4.4030000000000005,0.1027,0.7097,0.2454,0.034,-0.033,-0.022
1670342752.319981,-9.411,0.091,4.502,0.10260000000000001,0.7110000000000001,0.24600000000000002,0.01,-0.031,-0.02
1670342752.359981,-9.332,0.074,4.381,0.0881,0.7063,0.25120000000000003,0.0,-0.023,-0.006
1670342752.399981,-9.379,0.134,4.461,0.1027,0.7093,0.2451,0.007,-0.012,-0.014
1670342752.439981,-9.336,0.105,4.543,0.1018,0.7119000000000001,0.2462,0.012,-0.013000000000000001,-0.014
1670342752.399981,-9.373,0.10400000000000001,4.47,0.10260000000000001,0.7088,0.2457,0.017,-0.005,-0.008
1670342752.439981,-9.353,0.065,4.46,0.1028,0.7090000000000001,0.2456,0.006,-0.009000000000000001,-0.011
1670342752.47998,-9.266,0.08700000000000001,4.539,0.1017,0.7089000000000001,0.24450000000000002,0.002,-0.013000000000000001,0.0
1670342752.51998,-9.334,0.166,4.462,0.0937,0.7108,0.24780000000000002,0.026000000000000002,-0.005,-0.003
1670342752.55998,-9.421,0.01,4.393,0.1018,0.7087,0.24500000000000002,0.025,-0.004,-0.015
1670342752.5999799,-9.304,0.151,4.452,0.1023,0.7074,0.2679,0.025,-0.018000000000000002,-0.013000000000000001
1670342752.63998,-9.337,0.046,4.373,0.1022,0.7088,0.23020000000000002,0.012,-0.025,-0.011
1670342752.67998,-9.376,0.158,4.423,0.10160000000000001,0.7123,0.2298,0.016,-0.027,-0.021
1670342752.71998,-9.391,0.025,4.43,0.0966,0.7100000000000001,0.23870000000000002,0.017,-0.037,-0.032
1670342752.75998,-9.302,0.127,4.5,0.1027,0.7121000000000001,0.2459,0.001,-0.025,-0.018000000000000002
1670342752.79998,-9.389,0.015,4.5,0.0902,0.7077,0.2551,0.011,-0.02,-0.011
1670342752.83998,-9.349,0.147,4.515,0.1003,0.7089000000000001,0.2442,0.016,-0.013000000000000001,-0.006
1670342752.87998,-9.383000000000001,0.10400000000000001,4.471,0.1,0.7083,0.2464,0.038,-0.02,-0.001
1670342752.91998,-9.397,0.075,4.423,0.1014,0.7094,0.2462,0.027,-0.018000000000000002,-0.013000000000000001
1670342752.95998,-9.339,0.092,4.439,0.10110000000000001,0.7102,0.24300000000000002,0.033,-0.021,-0.009000000000000001
1670342752.99998,-9.364,0.052000000000000005,4.496,0.1033,0.7115,0.2452,0.025,-0.018000000000000002,-0.013000000000000001
1670342753.03998,-9.377,0.111,4.434,0.099,0.7091000000000001,0.2464,0.021,-0.014,-0.012
1670342753.07998,-9.369,0.078,4.431,0.1033,0.7105,0.2446,0.011,-0.007,0.002
1670342753.11998,-9.381,0.122,4.523,0.1003,0.7079000000000001,0.24700000000000003,0.012,0.004,-0.007
1670342753.15998,-9.308,0.107,4.479,0.09920000000000001,0.7116,0.24480000000000002,0.024,-0.002,-0.01
1670342753.19998,-9.326,0.053,4.486,0.1014,0.7102,0.24530000000000002,0.01,-0.012,-0.019
1670342753.23998,-9.452,0.13,4.466,0.09960000000000001,0.7087,0.2446,0.002,-0.012,-0.002
1670342753.27998,-9.425,0.108,4.463,0.1027,0.7124,0.2444,0.018000000000000002,0.004,-0.009000000000000001
1670342753.31998,-9.279,0.092,4.4350000000000005,0.0969,0.7075,0.2456,0.023,-0.004,-0.01
1670342753.35998,-9.329,0.061,4.462,0.10260000000000001,0.7087,0.24960000000000002,0.019,-0.012,-0.005
1670342753.39998,-9.42,0.10200000000000001,4.448,0.1023,0.7097,0.2451,0.013000000000000001,-0.013000000000000001,-0.01
1670342753.43998,-9.391,0.096,4.4590000000000005,0.10200000000000001,0.7073,0.2472,0.026000000000000002,-0.013000000000000001,-0.012
1670342753.47998,-9.327,-0.032,4.473,0.1044,0.7096,0.24700000000000003,0.013000000000000001,-0.02,-0.025
1670342753.519979,-9.290000000000001,0.113,4.473,0.10110000000000001,0.7095,0.2431,0.007,-0.025,-0.009000000000000001
1670342753.559979,-9.443,0.022,4.442,0.1039,0.7105,0.24500000000000002,0.009000000000000001,-0.004,-0.007
1670342753.599979,-9.358,0.134,4.488,0.1039,0.7120000000000001,0.2454,0.025,-0.003,-0.006
1670342753.639979,-9.338000000000001,0.089,4.429,0.1013,0.7106,0.24500000000000002,0.021,-0.005,-0.004
1670342753.679979,-9.411,0.096,4.394,0.10110000000000001,0.7091000000000001,0.2459,0.033,-0.015,-0.008
1670342753.719979,-9.415000000000001,0.108,4.433,0.1023,0.7076,0.2437,0.021,-0.019,-0.018000000000000002
1670342753.759979,-9.370000000000001,0.047,4.454,0.1048,0.7115,0.2437,0.015,-0.014,-0.009000000000000001
1670342753.799979,-9.326,0.111,4.511,0.10400000000000001,0.7118,0.24450000000000002,0.012,-0.02,-0.003
1670342753.839979,-9.334,0.05,4.431,0.10550000000000001,0.7108,0.24830000000000002,0.013000000000000001,-0.01,-0.008
1670342753.879979,-9.367,0.07200000000000001,4.447,0.10070000000000001,0.7113,0.24530000000000002,0.016,-0.001,-0.019
1670342753.919979,-9.368,0.055,4.397,0.10310000000000001,0.7094,0.24430000000000002,0.01,-0.007,-0.007
1670342753.959979,-9.323,0.004,4.4,0.1019,0.7124,0.2451,0.001,-0.014,0.0
1670342753.999979,-9.389,0.116,4.463,0.1019,0.7088,0.24380000000000002,0.022,-0.02,0.005
1670342754.039979,-9.482,0.096,4.402,0.09570000000000001,0.7126,0.2464,0.018000000000000002,-0.003,-0.001
1670342754.079979,-9.308,0.088,4.434,0.1024,0.7101000000000001,0.24400000000000002,0.023,-0.012,-0.006
1670342754.119979,-9.354000000000001,0.08,4.418,0.1044,0.7114,0.24250000000000002,0.026000000000000002,-0.023,-0.006
1670342754.159979,-9.362,0.113,4.534,0.1033,0.7107,0.2479,0.024,-0.029,-0.02
1670342754.199979,-9.321,0.08700000000000001,4.525,0.1013,0.7110000000000001,0.2441,0.031,-0.021,-0.01
1670342754.239979,-9.342,0.005,4.431,0.1019,0.7118,0.2429,0.016,-0.023,-0.014
1670342754.279979,-9.252,0.096,4.518,0.10400000000000001,0.7102,0.24650000000000002,0.016,-0.016,-0.006
1670342754.319979,-9.386000000000001,0.032,4.372,0.10300000000000001,0.7131000000000001,0.24750000000000003,0.013000000000000001,-0.009000000000000001,-0.004
1670342754.359979,-9.403,0.148,4.377,0.1039,0.7118,0.24730000000000002,0.026000000000000002,-0.007,-0.002
1670342754.399979,-9.346,0.123,4.51,0.10360000000000001,0.7122,0.2469,0.018000000000000002,-0.019,-0.005
1670342754.439979,-9.409,0.09,4.404,0.1003,0.7096,0.2442,0.022,-0.027,-0.018000000000000002
1670342754.479979,-9.4,0.111,4.43,0.1022,0.7087,0.26890000000000003,0.029,-0.03,-0.021
1670342754.519979,-9.401,0.08600000000000001,4.506,0.1008,0.7054,0.2499,0.015,-0.031,-0.021
1670342754.559978,-9.39,0.115,4.452,0.09860000000000001,0.7108,0.2409,0.007,-0.021,-0.01
1670342754.599978,-9.375,0.101,4.4190000000000005,0.10310000000000001,0.7117,0.24730000000000002,0.018000000000000002,-0.013000000000000001,-0.004
1670342754.639978,-9.406,0.095,4.447,0.1043,0.7118,0.24450000000000002,0.019,-0.008,-0.015
1670342754.679978,-9.32,0.066,4.432,0.10260000000000001,0.7121000000000001,0.2462,0.025,-0.01,-0.012
1670342754.719978,-9.281,0.033,4.5760000000000005,0.1044,0.7129000000000001,0.2477,0.006,-0.02,-0.014
1670342754.759978,-9.311,0.11900000000000001,4.509,0.10360000000000001,0.7111000000000001,0.2431,0.004,-0.017,0.002
1670342754.799978,-9.466000000000001,0.084,4.524,0.10110000000000001,0.7124,0.2485,0.028,-0.015,-0.004
1670342754.839978,-9.366,0.14400000000000002,4.447,0.1043,0.7116,0.2454,0.042,-0.015,-0.021
1670342754.879978,-9.372,0.025,4.391,0.10500000000000001,0.7105,0.24700000000000003,0.035,-0.008,-0.012
1670342754.919978,-9.35,0.035,4.393,0.10300000000000001,0.7091000000000001,0.24700000000000003,0.008,-0.014,-0.002
1670342754.959978,-9.389,0.12,4.464,0.1009,0.7133,0.2441,0.012,-0.019,-0.01
1670342754.999978,-9.352,0.026000000000000002,4.478,0.1042,0.7107,0.24650000000000002,0.015,-0.015,-0.023
1670342755.039978,-9.327,0.106,4.456,0.1024,0.7100000000000001,0.2492,0.006,-0.024,-0.017
1670342755.079978,-9.396,0.034,4.5360000000000005,0.10300000000000001,0.7129000000000001,0.2469,-0.001,-0.015,-0.007
1670342755.119978,-9.385,0.123,4.406,0.1028,0.7103,0.2432,0.016,0.0,-0.009000000000000001
1670342755.159978,-9.305,0.089,4.548,0.1028,0.7135,0.2497,0.025,-0.005,-0.006
1670342755.199978,-9.375,0.067,4.434,0.1008,0.7114,0.24530000000000002,0.017,-0.007,-0.008
1670342755.239978,-9.36,0.089,4.51,0.1027,0.7105,0.2434,0.025,-0.015,-0.016
1670342755.279978,-9.33,0.064,4.522,0.10250000000000001,0.7101000000000001,0.24500000000000002,0.021,-0.02,-0.019
1670342755.319978,-9.384,0.044,4.402,0.1022,0.7103,0.2457,0.016,-0.021,-0.014
1670342755.359978,-9.359,0.058,4.485,0.1028,0.7131000000000001,0.2437,-0.003,-0.02,-0.007
1670342755.399978,-9.306000000000001,0.085,4.497,0.10360000000000001,0.7133,0.24780000000000002,0.024,-0.015,-0.015
1670342755.439978,-9.4,0.08,4.436,0.1047,0.7101000000000001,0.2474,0.026000000000000002,-0.011,-0.013000000000000001
1670342755.4799778,-9.39,0.037,4.434,0.1038,0.7115,0.2461,0.025,-0.014,-0.012
1670342755.519978,-9.394,0.041,4.491,0.10200000000000001,0.7082,0.24910000000000002,0.015,-0.012,-0.012
1670342755.559978,-9.36,0.057,4.412,0.1012,0.7134,0.2484,0.006,-0.027,-0.011
1670342755.599977,-9.396,0.195,4.487,0.10110000000000001,0.7123,0.2506,0.03,-0.015,-0.005
1670342755.639977,-9.358,-0.01,4.465,0.1013,0.7088,0.2479,0.039,-0.013000000000000001,-0.013000000000000001
1670342755.679977,-9.339,0.111,4.434,0.10300000000000001,0.7099000000000001,0.24680000000000002,0.023,-0.007,-0.009000000000000001
1670342755.719977,-9.355,0.033,4.4190000000000005,0.1039,0.7106,0.2484,0.009000000000000001,-0.014,-0.001
1670342755.759977,-9.397,0.075,4.469,0.10500000000000001,0.7110000000000001,0.2485,0.008,-0.009000000000000001,0.002
1670342755.799977,-9.352,0.121,4.516,0.0945,0.7110000000000001,0.24760000000000001,0.02,-0.012,-0.021
1670342755.839977,-9.383000000000001,0.036000000000000004,4.542,0.1019,0.7122,0.2506,0.017,-0.017,-0.026000000000000002
1670342755.879977,-9.373,0.14,4.5760000000000005,0.1041,0.7110000000000001,0.24680000000000002,0.011,-0.014,-0.006
1670342755.919977,-9.357,0.025,4.468,0.1023,0.7108,0.2436,0.003,-0.008,0.003
1670342755.959977,-9.361,0.056,4.413,0.1012,0.7118,0.2479,0.023,-0.01,0.0
1670342755.999977,-9.315,0.076,4.534,0.1042,0.7109000000000001,0.24500000000000002,0.032,-0.017,-0.001
1670342756.039977,-9.367,0.089,4.381,0.0978,0.7100000000000001,0.2462,0.033,-0.017,-0.005
1670342756.079977,-9.419,0.047,4.366,0.1022,0.7106,0.24450000000000002,0.031,-0.016,-0.019
1670342756.119977,-9.403,0.082,4.463,0.1038,0.7091000000000001,0.24550000000000002,0.011,-0.023,-0.012
1670342756.159977,-9.296,0.026000000000000002,4.469,0.1028,0.7124,0.24650000000000002,0.007,-0.021,-0.003
1670342756.199977,-9.364,0.073,4.479,0.1008,0.7088,0.24700000000000003,0.022,-0.01,0.0
1670342756.239977,-9.439,0.07,4.457,0.09960000000000001,0.7093,0.24600000000000002,0.026000000000000002,0.004,-0.008
1670342756.2799768,-9.338000000000001,0.024,4.453,0.0965,0.7101000000000001,0.2461,0.007,0.007,-0.019
1670342756.319977,-9.421,0.063,4.381,0.1008,0.7119000000000001,0.2564,0.005,0.005,0.009000000000000001
1670342756.359977,-9.363,0.049,4.434,0.1017,0.7103,0.26280000000000003,0.018000000000000002,-0.005,0.0
1670342756.399977,-9.409,0.08600000000000001,4.408,0.1009,0.7105,0.23920000000000002,0.032,-0.028,-0.02
1670342756.439977,-9.48,0.168,4.424,0.10260000000000001,0.7080000000000001,0.24710000000000001,0.052000000000000005,-0.037,0.001
1670342756.479977,-9.335,0.047,4.329,0.1028,0.7088,0.24580000000000002,0.039,-0.017,-0.007
1670342756.5199769,-9.315,0.076,4.306,0.1029,0.7077,0.24810000000000001,0.03,-0.035,-0.019
1670342756.559977,-9.369,0.096,4.502,0.1003,0.7070000000000001,0.24680000000000002,0.007,-0.033,-0.006
1670342756.599977,-9.388,0.095,4.5120000000000005,0.1034,0.7079000000000001,0.2462,-0.005,-0.033,-0.016
1670342756.639977,-9.371,0.098,4.582,0.0998,0.7090000000000001,0.24980000000000002,-0.001,-0.025,-0.035
1670342756.679977,-9.32,0.017,4.499,0.1012,0.7111000000000001,0.24480000000000002,-0.023,-0.021,-0.024
1670342756.719976,-9.393,0.133,4.545,0.1012,0.7140000000000001,0.2462,-0.012,-0.011,-0.007
1670342756.759976,-9.413,0.148,4.469,0.1019,0.7094,0.24500000000000002,0.014,0.001,-0.004
1670342756.799976,-9.303,0.089,4.479,0.10210000000000001,0.7116,0.24350000000000002,0.032,-0.002,0.0
1670342756.839976,-9.355,0.066,4.477,0.1039,0.7108,0.24710000000000001,0.035,-0.014,-0.003
1670342756.879976,-9.362,0.109,4.4750000000000005,0.1038,0.7112,0.24650000000000002,0.026000000000000002,-0.029,-0.011
1670342756.919976,-9.361,0.08,4.5360000000000005,0.1,0.7115,0.2432,0.023,-0.033,-0.021
1670342756.959976,-9.399000000000001,0.026000000000000002,4.404,0.0995,0.7118,0.2523,0.025,-0.032,-0.026000000000000002
1670342756.999976,-9.36,0.07200000000000001,4.5360000000000005,0.10200000000000001,0.7087,0.2484,0.011,-0.032,-0.014
1670342757.039976,-9.315,0.045,4.566,0.09730000000000001,0.7098,0.24450000000000002,0.004,-0.019,-0.008
1670342757.0799758,-9.406,0.047,4.46,0.101,0.7116,0.2464,0.016,-0.006,-0.012
1670342757.119976,-9.361,0.049,4.529,0.0993,0.7119000000000001,0.2467,0.014,-0.003,-0.015
1670342757.159976,-9.357,0.016,4.492,0.0995,0.7123,0.2467,0.004,-0.01,-0.007
1670342757.199976,-9.343,0.078,4.598,0.1024,0.7109000000000001,0.24860000000000002,0.012,-0.018000000000000002,-0.008
1670342757.239976,-9.407,0.121,4.499,0.10010000000000001,0.7110000000000001,0.24530000000000002,0.029,-0.01,-0.001
1670342757.279976,-9.354000000000001,0.002,4.394,0.10070000000000001,0.7098,0.2474,0.032,-0.006,-0.011
1670342757.3199759,-9.326,0.099,4.412,0.09970000000000001,0.7130000000000001,0.2482,0.019,-0.017,-0.008
1670342757.359976,-9.385,0.074,4.448,0.1032,0.7108,0.2482,0.024,-0.013000000000000001,0.0
1670342757.399976,-9.39,0.052000000000000005,4.46,0.1003,0.7125,0.24760000000000001,0.027,-0.009000000000000001,-0.015
1670342757.439976,-9.356,0.059000000000000004,4.554,0.10310000000000001,0.7113,0.24700000000000003,0.021,-0.009000000000000001,-0.021
1670342757.479976,-9.332,-0.008,4.483,0.10210000000000001,0.7130000000000001,0.2462,-0.001,-0.013000000000000001,-0.012
1670342757.519976,-9.326,0.08600000000000001,4.579,0.0995,0.7126,0.2503,0.0,-0.006,-0.009000000000000001
1670342757.5599759,-9.357,0.098,4.563,0.0999,0.7112,0.2464,0.016,0.0,-0.008
1670342757.599976,-9.278,0.037,4.445,0.09970000000000001,0.7129000000000001,0.2452,0.023,-0.01,-0.003
1670342757.639976,-9.329,0.07200000000000001,4.509,0.1033,0.7138,0.2434,0.023,-0.018000000000000002,-0.007
1670342757.679976,-9.382,0.089,4.469,0.1009,0.7132000000000001,0.24710000000000001,0.024,-0.021,-0.011
1670342757.719976,-9.367,0.064,4.519,0.0995,0.7096,0.2482,0.035,-0.02,-0.02
1670342757.759975,-9.405,0.039,4.469,0.1034,0.7121000000000001,0.24780000000000002,0.016,-0.012,-0.002
1670342757.799975,-9.339,0.065,4.471,0.0981,0.7114,0.24750000000000003,0.017,-0.017,-0.005
1670342757.839975,-9.372,0.099,4.495,0.1012,0.7137,0.24530000000000002,0.029,-0.011,-0.01
1670342757.879975,-9.324,0.066,4.533,0.1017,0.7105,0.2436,0.03,-0.017,-0.02
1670342757.919975,-9.383000000000001,0.05,4.477,0.1012,0.7122,0.2456,0.01,-0.022,-0.013000000000000001
1670342757.959975,-9.325000000000001,0.049,4.454,0.1009,0.7097,0.2444,-0.003,-0.027,-0.011
1670342757.999975,-9.406,0.107,4.468,0.1033,0.7134,0.2441,0.018000000000000002,-0.008,-0.002
1670342758.039975,-9.379,0.025,4.4510000000000005,0.0989,0.7096,0.25,0.026000000000000002,-0.009000000000000001,-0.005
1670342758.079975,-9.266,0.112,4.515,0.1003,0.7109000000000001,0.2444,0.032,-0.021,-0.002
1670342758.1199749,-9.329,0.065,4.499,0.1,0.7107,0.2619,0.018000000000000002,-0.024,-0.008
1670342758.159975,-9.299,0.074,4.409,0.0981,0.7125,0.21730000000000002,0.02,-0.025,-0.009000000000000001
1670342758.199975,-9.408,-0.029,4.6000000000000005,0.1005,0.7112,0.2399,0.019,-0.028,-0.02
1670342758.239975,-9.339,0.14200000000000002,4.563,0.09730000000000001,0.7125,0.2529,0.011,-0.032,-0.012
1670342758.279975,-9.427,-0.049,4.333,0.10010000000000001,0.7131000000000001,0.249,0.014,-0.016,-0.006
1670342758.319975,-9.408,0.128,4.51,0.0999,0.7101000000000001,0.24780000000000002,0.016,-0.009000000000000001,-0.008
1670342758.3599749,-9.347,0.078,4.453,0.0978,0.7096,0.2469,0.026000000000000002,-0.009000000000000001,0.0
1670342758.399975,-9.316,0.032,4.388,0.0969,0.7100000000000001,0.2477,0.027,-0.016,-0.008
1670342758.439975,-9.355,0.064,4.465,0.0978,0.7124,0.24450000000000002,0.03,-0.021,-0.007
1670342758.479975,-9.325000000000001,0.049,4.5280000000000005,0.1014,0.7108,0.24500000000000002,0.021,-0.023,-0.007
1670342758.519975,-9.388,0.079,4.3950000000000005,0.09820000000000001,0.7101000000000001,0.2454,0.021,-0.024,-0.007
1670342758.559975,-9.378,0.105,4.381,0.1003,0.7116,0.2503,0.019,-0.017,-0.007
1670342758.5999749,-9.317,0.095,4.5040000000000004,0.09720000000000001,0.7100000000000001,0.2461,0.034,-0.017,-0.018000000000000002
1670342758.639975,-9.337,0.05,4.494,0.1003,0.7125,0.2499,0.029,-0.016,-0.018000000000000002
1670342758.679975,-9.327,0.049,4.595,0.1,0.7112,0.24500000000000002,0.025,-0.015,-0.008
1670342758.719975,-9.327,0.084,4.522,0.10020000000000001,0.7105,0.24550000000000002,0.004,-0.023,-0.015
1670342758.759975,-9.342,0.156,4.472,0.1017,0.7094,0.2474,0.019,-0.027,-0.001
1670342758.799974,-9.370000000000001,0.03,4.561,0.1019,0.7097,0.24880000000000002,0.027,-0.011,-0.009000000000000001
1670342758.839974,-9.27,0.12,4.478,0.09960000000000001,0.7111000000000001,0.248,0.027,-0.012,-0.014
1670342758.879974,-9.325000000000001,0.034,4.439,0.09910000000000001,0.7109000000000001,0.24630000000000002,0.026000000000000002,-0.01,-0.007
1670342758.9199739,-9.285,0.065,4.609,0.1004,0.7126,0.2459,0.011,-0.017,-0.013000000000000001
1670342758.959974,-9.357,0.074,4.4430000000000005,0.1008,0.7113,0.24780000000000002,0.022,-0.018000000000000002,-0.019
1670342758.999974,-9.371,0.007,4.424,0.0998,0.7101000000000001,0.2457,0.012,-0.019,-0.023
1670342759.039974,-9.318,0.101,4.499,0.0993,0.7103,0.24580000000000002,0.012,-0.014,-0.012
1670342759.079974,-9.418000000000001,0.017,4.478,0.1009,0.7099000000000001,0.2484,0.006,-0.006,-0.005
1670342759.119974,-9.349,0.10400000000000001,4.516,0.10010000000000001,0.7113,0.2484,0.015,-0.002,-0.012
1670342759.1599739,-9.333,0.084,4.458,0.0995,0.7106,0.2459,0.015,-0.009000000000000001,-0.004
1670342759.199974,-9.342,0.076,4.463,0.10010000000000001,0.7105,0.24580000000000002,0.029,-0.011,-0.012
1670342759.239974,-9.364,0.11,4.569,0.09530000000000001,0.7087,0.25470000000000004,0.027,-0.029,-0.026000000000000002
1670342759.279974,-9.36,0.025,4.4670000000000005,0.0995,0.7125,0.2451,0.028,-0.025,-0.02
1670342759.319974,-9.34,0.049,4.588,0.09860000000000001,0.7138,0.2466,0.018000000000000002,-0.021,-0.015
1670342759.359974,-9.282,0.034,4.533,0.10070000000000001,0.7124,0.2509,0.019,-0.018000000000000002,-0.011
1670342759.3999739,-9.402000000000001,0.044,4.372,0.0998,0.7095,0.2442,0.022,-0.01,-0.01
1670342759.439974,-9.434000000000001,0.096,4.481,0.101,0.7127,0.2467,0.02,-0.006,-0.013000000000000001
1670342759.479974,-9.276,-0.003,4.478,0.0898,0.7083,0.25670000000000004,0.033,-0.018000000000000002,-0.012
1670342759.519974,-9.396,0.077,4.546,0.1018,0.7119000000000001,0.2452,0.017,-0.017,-0.01
1670342759.559974,-9.326,0.07100000000000001,4.51,0.10060000000000001,0.7090000000000001,0.24780000000000002,0.015,-0.015,-0.017
1670342759.599974,-9.321,0.037,4.469,0.10200000000000001,0.7119000000000001,0.2492,0.01,-0.016,-0.007
1670342759.6399739,-9.283,0.124,4.619,0.1017,0.7123,0.2484,0.025,-0.013000000000000001,0.007
1670342759.679974,-9.363,0.044,4.583,0.1019,0.7090000000000001,0.24680000000000002,0.077,0.017,-0.026000000000000002
1670342759.719974,-9.36,0.084,4.391,0.0932,0.7083,0.2551,0.069,0.007,-0.029
1670342759.759974,-9.370000000000001,0.004,4.433,0.0998,0.7096,0.2489,-0.001,-0.013000000000000001,0.0
1670342759.799974,-9.363,0.011,4.49,0.0994,0.7113,0.2485,-0.022,-0.031,0.0
1670342759.839973,-9.506,0.111,4.471,0.1024,0.7092,0.24780000000000002,0.0,-0.042,-0.022
1670342759.879973,-9.302,0.031,4.618,0.1004,0.7085,0.2479,-0.015,-0.032,-0.016
1670342759.919973,-9.329,0.061,4.579,0.0998,0.7093,0.24810000000000001,-0.001,-0.027,-0.018000000000000002
1670342759.9599729,-9.359,0.002,4.477,0.09390000000000001,0.7074,0.26,0.009000000000000001,-0.019,-0.005
1670342759.999973,-9.302,0.11,4.418,0.09860000000000001,0.7124,0.23920000000000002,0.03,-0.012,-0.007
1670342760.039973,-9.317,0.053,4.524,0.1023,0.7130000000000001,0.24230000000000002,0.038,-0.018000000000000002,-0.005
1670342760.079973,-9.357,0.062,4.491,0.09920000000000001,0.7095,0.253,0.034,-0.027,-0.018000000000000002
1670342760.119973,-9.302,0.032,4.5840000000000005,0.1,0.7123,0.24700000000000003,0.025,-0.034,-0.014
1670342760.159973,-9.373,0.04,4.453,0.10060000000000001,0.7113,0.24680000000000002,0.014,-0.037,-0.018000000000000002
1670342760.1999729,-9.359,0.041,4.484,0.10110000000000001,0.7118,0.24680000000000002,0.014,-0.03,-0.016
1670342760.239973,-9.333,0.034,4.496,0.0954,0.7116,0.24860000000000002,0.008,-0.022,-0.005
1670342760.279973,-9.321,0.027,4.5280000000000005,0.0976,0.7115,0.24480000000000002,0.007,-0.018000000000000002,-0.009000000000000001
1670342760.319973,-9.321,0.074,4.558,0.10200000000000001,0.7104,0.2482,0.018000000000000002,-0.013000000000000001,0.002
1670342760.359973,-9.355,0.101,4.494,0.1022,0.7117,0.24810000000000001,0.028,-0.011,-0.007
1670342760.399973,-9.334,0.065,4.594,0.1005,0.7131000000000001,0.2456,0.029,-0.012,-0.01
1670342760.4399729,-9.327,-0.002,4.518,0.0995,0.7097,0.248,0.01,-0.019,-0.014
1670342760.479973,-9.386000000000001,0.053,4.532,0.10110000000000001,0.7116,0.2474,0.012,-0.04,-0.014
1670342760.519973,-9.437,0.20400000000000001,4.616,0.0995,0.7107,0.24930000000000002,0.034,-0.025,-0.006
1670342760.559973,-9.347,-0.002,4.393,0.1008,0.7102,0.2497,0.022,-0.006,-0.01
1670342760.599973,-9.271,0.079,4.55,0.1009,0.7101000000000001,0.2487,0.005,-0.011,-0.009000000000000001
1670342760.639973,-9.326,0.066,4.486,0.09920000000000001,0.7096,0.2492,0.006,-0.016,-0.006
1670342760.679973,-9.326,0.082,4.603,0.10010000000000001,0.7114,0.2489,0.008,-0.015,-0.018000000000000002
1670342760.719973,-9.314,0.08600000000000001,4.7,0.1004,0.7116,0.2467,0.016,-0.022,-0.031
1670342760.759973,-9.338000000000001,-0.019,4.531,0.09720000000000001,0.7114,0.24710000000000001,0.001,-0.027,-0.024
1670342760.799973,-9.338000000000001,0.08,4.509,0.1023,0.7114,0.249,0.006,-0.015,-0.008
1670342760.839973,-9.375,0.079,4.617,0.0999,0.7116,0.24930000000000002,0.009000000000000001,-0.007,-0.003
1670342760.879972,-9.253,0.049,4.5,0.0995,0.7094,0.24810000000000001,0.031,-0.005,0.0
1670342760.919972,-9.321,0.028,4.482,0.09970000000000001,0.7107,0.24830000000000002,0.031,-0.014,-0.003
1670342760.959972,-9.363,0.08,4.551,0.1008,0.7096,0.2501,0.029,-0.02,-0.007
1670342760.9999719,-9.268,0.03,4.542,0.0998,0.7094,0.24780000000000002,0.021,-0.026000000000000002,-0.011
1670342761.039972,-9.291,0.02,4.5600000000000005,0.0984,0.7117,0.24700000000000003,0.014,-0.034,-0.012
1670342761.079972,-9.367,0.065,4.464,0.0999,0.7106,0.2499,0.018000000000000002,-0.022,-0.013000000000000001
1670342761.119972,-9.377,0.077,4.519,0.0998,0.7107,0.2511,0.019,-0.016,-0.007
1670342761.159972,-9.363,0.067,4.548,0.1033,0.7097,0.2474,0.027,-0.005,-0.01
1670342761.199972,-9.327,0.062,4.527,0.0981,0.7094,0.24760000000000001,0.027,-0.001,-0.004
1670342761.2399719,-9.258000000000001,0.036000000000000004,4.469,0.1,0.7118,0.24810000000000001,0.023,-0.013000000000000001,-0.008
1670342761.279972,-9.351,0.029,4.437,0.1015,0.7117,0.24930000000000002,0.016,-0.028,-0.014
1670342761.319972,-9.375,0.096,4.594,0.0988,0.7099000000000001,0.24930000000000002,0.018000000000000002,-0.027,-0.006
1670342761.359972,-9.321,0.108,4.5280000000000005,0.10060000000000001,0.7100000000000001,0.2472,0.027,-0.017,-0.004
1670342761.399972,-9.290000000000001,0.018000000000000002,4.5120000000000005,0.09870000000000001,0.7099000000000001,0.24780000000000002,0.029,-0.021,-0.009000000000000001
1670342761.439972,-9.285,0.123,4.5040000000000004,0.09960000000000001,0.7106,0.2479,0.027,-0.02,-0.003
1670342761.479972,-9.308,0.089,4.612,0.0989,0.7093,0.24710000000000001,0.037,-0.017,-0.004
1670342761.519972,-9.381,0.077,4.531,0.0994,0.7094,0.2511,0.033,-0.014,-0.016
1670342761.559972,-9.27,0.07100000000000001,4.554,0.099,0.7107,0.2482,0.017,-0.023,-0.021
1670342761.599972,-9.288,0.022,4.567,0.098,0.7089000000000001,0.249,0.005,-0.031,-0.005
1670342761.639972,-9.311,0.116,4.555,0.10070000000000001,0.7126,0.2477,0.014,-0.014,-0.008
1670342761.679972,-9.331,0.09,4.578,0.1005,0.7104,0.2454,0.015,-0.004,-0.01
1670342761.719972,-9.278,0.10200000000000001,4.573,0.09860000000000001,0.7093,0.2459,0.024,-0.012,-0.004
1670342761.759972,-9.312,0.105,4.563,0.09920000000000001,0.7099000000000001,0.2606,0.025,-0.022,-0.01
1670342761.799972,-9.264,0.08,4.6080000000000005,0.09670000000000001,0.7105,0.24150000000000002,0.03,-0.025,-0.019
1670342761.839972,-9.308,0.082,4.683,0.1005,0.7112,0.2412,0.026000000000000002,-0.022,-0.02
1670342761.879972,-9.341000000000001,0.063,4.516,0.097,0.7112,0.25370000000000004,0.021,-0.02,-0.018000000000000002
1670342761.919971,-9.293000000000001,0.081,4.5040000000000004,0.09730000000000001,0.7110000000000001,0.26230000000000003,0.007,-0.01,-0.004
1670342761.959971,-9.364,0.065,4.535,0.0994,0.7098,0.249,0.02,-0.003,-0.017
1670342761.999971,-9.281,0.089,4.6690000000000005,0.09580000000000001,0.7111000000000001,0.24760000000000001,0.018000000000000002,0.0,-0.008
1670342762.0399709,-9.338000000000001,0.091,4.626,0.0974,0.7117,0.24780000000000002,0.013000000000000001,-0.004,-0.008
1670342762.079971,-9.289,0.016,4.481,0.09620000000000001,0.7131000000000001,0.2511,0.008,-0.006,-0.008
1670342762.119971,-9.259,0.069,4.462,0.09870000000000001,0.7099000000000001,0.24700000000000003,0.013000000000000001,-0.012,-0.004
1670342762.159971,-9.34,0.031,4.454,0.0978,0.7104,0.24860000000000002,0.027,-0.003,-0.002
1670342762.199971,-9.316,0.10200000000000001,4.48,0.0985,0.7108,0.24750000000000003,0.03,-0.005,-0.005
1670342762.239971,-9.296,0.013000000000000001,4.446,0.0984,0.7118,0.24430000000000002,0.022,-0.007,-0.006
1670342762.279971,-9.298,0.089,4.598,0.0965,0.7113,0.24750000000000003,0.007,-0.017,-0.008
1670342762.319971,-9.352,0.122,4.641,0.0993,0.7101000000000001,0.24680000000000002,0.014,-0.012,-0.015
1670342762.359971,-9.275,-0.01,4.481,0.0993,0.7110000000000001,0.2484,0.015,-0.021,-0.022
1670342762.399971,-9.315,0.05,4.46,0.0984,0.7141000000000001,0.24730000000000002,0.009000000000000001,-0.024,-0.014
1670342762.439971,-9.311,-0.019,4.4670000000000005,0.09680000000000001,0.7102,0.249,0.01,-0.012,-0.01
1670342762.479971,-9.33,0.109,4.589,0.0988,0.7108,0.2499,0.017,-0.005,-0.009000000000000001
1670342762.519971,-9.254,0.063,4.494,0.10070000000000001,0.7106,0.25070000000000003,0.026000000000000002,-0.006,-0.004
1670342762.559971,-9.358,0.084,4.482,0.1,0.7102,0.24760000000000001,0.025,-0.01,-0.007
1670342762.599971,-9.388,0.098,4.5040000000000004,0.1014,0.7094,0.2461,0.031,-0.02,-0.01
1670342762.639971,-9.399000000000001,0.04,4.497,0.09730000000000001,0.7103,0.249,0.022,-0.023,-0.017
1670342762.679971,-9.305,0.045,4.483,0.09680000000000001,0.7099000000000001,0.2508,0.011,-0.017,-0.017
1670342762.719971,-9.351,0.067,4.5360000000000005,0.09910000000000001,0.7088,0.2472,0.009000000000000001,-0.015,-0.007
1670342762.759971,-9.347,0.065,4.565,0.09730000000000001,0.7084,0.248,0.01,-0.009000000000000001,-0.013000000000000001
1670342762.799971,-9.38,0.094,4.567,0.1,0.7097,0.2482,0.021,-0.006,-0.005
1670342762.839971,-9.367,0.038,4.515,0.0961,0.7105,0.2482,0.024,-0.006,-0.009000000000000001
1670342762.879971,-9.315,-0.016,4.573,0.0998,0.7109000000000001,0.2485,0.005,-0.02,-0.015
1670342762.919971,-9.298,0.023,4.5520000000000005,0.09620000000000001,0.7110000000000001,0.2472,0.005,-0.018000000000000002,0.0
1670342762.95997,-9.446,0.196,4.566,0.0984,0.7113,0.2514,0.015,-0.015,-0.01
1670342762.99997,-9.34,0.008,4.422,0.0956,0.7116,0.24960000000000002,0.035,-0.011,-0.016
1670342763.03997,-9.296,0.044,4.496,0.1,0.7113,0.2487,0.019,-0.011,-0.008
1670342763.07997,-9.343,0.016,4.406,0.09970000000000001,0.7107,0.2472,0.011,-0.014,0.0
1670342763.11997,-9.315,0.08,4.664,0.10160000000000001,0.7129000000000001,0.2484,0.013000000000000001,-0.022,-0.01
1670342763.15997,-9.349,0.067,4.491,0.0979,0.7085,0.249,0.023,-0.016,-0.025
1670342763.19997,-9.394,0.014,4.429,0.1,0.7110000000000001,0.2464,0.015,-0.02,-0.01
1670342763.23997,-9.385,0.067,4.521,0.097,0.7111000000000001,0.25,0.005,-0.006,0.005
1670342763.27997,-9.384,0.07,4.49,0.09920000000000001,0.7137,0.2489,0.02,-0.009000000000000001,-0.006
1670342763.31997,-9.233,0.083,4.555,0.09770000000000001,0.7080000000000001,0.24930000000000002,0.027,-0.016,0.0
1670342763.35997,-9.261000000000001,0.05,4.518,0.0984,0.7121000000000001,0.24930000000000002,0.021,-0.026000000000000002,-0.013000000000000001
1670342763.39997,-9.337,0.062,4.431,0.09870000000000001,0.7113,0.2482,0.029,-0.03,-0.015
1670342763.43997,-9.36,0.09,4.574,0.1008,0.7134,0.24860000000000002,0.025,-0.025,-0.014
1670342763.47997,-9.377,0.038,4.491,0.09390000000000001,0.7093,0.253,0.016,-0.003,-0.004
1670342763.51997,-9.311,0.059000000000000004,4.652,0.09920000000000001,0.7134,0.24650000000000002,-0.035,0.033,0.034
1670342763.55997,-9.303,0.059000000000000004,4.583,0.10010000000000001,0.7115,0.2467,-0.003,0.002,0.018000000000000002
1670342763.59997,-9.332,0.149,4.57,0.0978,0.7103,0.2386,0.037,-0.01,0.0
1670342763.63997,-9.385,0.135,4.591,0.0998,0.7117,0.2591,0.048,-0.017,-0.023
1670342763.67997,-9.422,-0.01,4.523,0.09570000000000001,0.7095,0.26130000000000003,0.044,-0.056,-0.034
1670342763.71997,-9.448,0.091,4.5680000000000005,0.099,0.7090000000000001,0.23620000000000002,0.035,-0.065,-0.03
1670342763.75997,-9.39,0.155,4.583,0.0969,0.7113,0.2484,0.046,-0.034,-0.012
1670342763.79997,-9.268,0.08700000000000001,4.554,0.0995,0.7103,0.2482,0.041,-0.028,-0.023
1670342763.83997,-9.317,0.059000000000000004,4.393,0.0985,0.7103,0.25,0.028,-0.022,-0.02
1670342763.87997,-9.317,0.09,4.5520000000000005,0.0974,0.7109000000000001,0.24830000000000002,0.009000000000000001,-0.033,-0.009000000000000001
1670342763.91997,-9.291,0.105,4.691,0.09820000000000001,0.7102,0.24730000000000002,0.018000000000000002,-0.025,-0.025
1670342763.95997,-9.299,0.041,4.615,0.10110000000000001,0.7116,0.24830000000000002,0.021,-0.027,-0.041
1670342763.999969,-9.228,0.044,4.604,0.09970000000000001,0.7130000000000001,0.2506,-0.005,-0.028,-0.028
1670342764.039969,-9.366,0.025,4.491,0.0974,0.7109000000000001,0.248,-0.003,-0.022,-0.018000000000000002
1670342764.079969,-9.304,0.129,4.598,0.09820000000000001,0.7099000000000001,0.2494,0.007,-0.008,-0.01
1670342764.119969,-9.282,0.098,4.624,0.0988,0.7104,0.24710000000000001,0.022,-0.012,-0.01
1670342764.159969,-9.351,0.074,4.64,0.096,0.7104,0.24930000000000002,0.025,-0.013000000000000001,-0.01
1670342764.199969,-9.279,0.049,4.615,0.0964,0.7097,0.2508,0.022,-0.015,-0.016
1670342764.239969,-9.313,0.046,4.51,0.0969,0.7104,0.2499,0.014,-0.02,-0.015
1670342764.279969,-9.263,0.002,4.549,0.0954,0.7108,0.25120000000000003,0.004,-0.02,-0.014
1670342764.319969,-9.248,0.03,4.522,0.09920000000000001,0.7112,0.24880000000000002,0.005,-0.018000000000000002,-0.014
1670342764.359969,-9.3,0.016,4.646,0.09920000000000001,0.7123,0.2504,0.008,-0.01,-0.01
1670342764.399969,-9.311,0.05,4.582,0.0981,0.7091000000000001,0.25,0.009000000000000001,-0.007,-0.007
1670342764.439969,-9.261000000000001,0.05,4.518,0.095,0.7104,0.2504,0.015,0.002,-0.002
1670342764.479969,-9.256,-0.01,4.587,0.0959,0.7095,0.24880000000000002,0.012,-0.012,-0.015
1670342764.519969,-9.332,0.052000000000000005,4.521,0.09970000000000001,0.7110000000000001,0.2504,0.02,-0.012,-0.001
1670342764.559969,-9.412,0.042,4.575,0.09870000000000001,0.7107,0.24830000000000002,0.022,-0.008,0.001
1670342764.599969,-9.206,0.07,4.578,0.0976,0.7107,0.2494,0.024,-0.016,-0.009000000000000001
1670342764.639969,-9.278,0.055,4.597,0.0979,0.7112,0.25120000000000003,0.022,-0.025,-0.01
1670342764.679969,-9.317,0.048,4.627,0.10010000000000001,0.7115,0.25020000000000003,0.035,-0.023,-0.008
1670342764.719969,-9.298,0.047,4.658,0.09860000000000001,0.7117,0.2508,0.03,-0.02,-0.02
1670342764.759969,-9.309000000000001,-0.048,4.691,0.09770000000000001,0.7100000000000001,0.2499,0.019,-0.021,-0.02
1670342764.799969,-9.299,0.099,4.601,0.09820000000000001,0.7126,0.24930000000000002,0.009000000000000001,-0.023,-0.008
1670342764.839969,-9.26,-0.034,4.692,0.09670000000000001,0.7135,0.2503,0.01,-0.008,0.002
1670342764.879969,-9.287,0.082,4.561,0.0978,0.7118,0.24860000000000002,0.019,0.0,-0.003
1670342764.9199688,-9.278,0.053,4.582,0.0998,0.7104,0.2489,0.027,-0.003,-0.004
1670342764.959969,-9.304,0.056,4.607,0.0981,0.7094,0.24760000000000001,0.017,-0.016,-0.014
1670342764.999969,-9.3,0.055,4.561,0.0974,0.7096,0.2492,0.024,-0.019,-0.018000000000000002
1670342765.039968,-9.321,0.036000000000000004,4.559,0.0981,0.7116,0.24930000000000002,0.009000000000000001,-0.022,-0.013000000000000001
1670342765.079968,-9.306000000000001,0.058,4.537,0.0979,0.7098,0.24980000000000002,0.014,-0.015,-0.012
1670342765.119968,-9.264,0.035,4.585,0.0989,0.7130000000000001,0.2492,0.02,-0.019,-0.016
1670342765.159968,-9.334,0.061,4.594,0.09680000000000001,0.7098,0.25670000000000004,0.009000000000000001,-0.01,-0.012
1670342765.199968,-9.290000000000001,0.031,4.557,0.10110000000000001,0.7085,0.2497,0.007,-0.009000000000000001,-0.013000000000000001
1670342765.239968,-9.25,-0.035,4.619,0.0917,0.7104,0.2509,0.001,-0.028,-0.015
1670342765.279968,-9.341000000000001,0.069,4.601,0.0961,0.7112,0.2497,0.018000000000000002,-0.023,-0.003
1670342765.319968,-9.392,0.049,4.557,0.09870000000000001,0.7110000000000001,0.2495,0.025,-0.009000000000000001,-0.006
1670342765.359968,-9.273,0.049,4.612,0.1005,0.7095,0.24880000000000002,0.027,-0.01,-0.008
1670342765.399968,-9.264,0.012,4.554,0.0984,0.7105,0.2503,0.025,-0.014,0.002
1670342765.439968,-9.316,0.041,4.573,0.0966,0.7110000000000001,0.2396,0.036000000000000004,-0.019,-0.01
1670342765.479968,-9.351,0.062,4.639,0.0949,0.7092,0.2771,0.036000000000000004,-0.022,-0.009000000000000001
1670342765.519968,-9.211,0.069,4.654,0.0971,0.7096,0.25,0.017,-0.013000000000000001,-0.012
1670342765.559968,-9.345,0.005,4.495,0.09860000000000001,0.7135,0.24760000000000001,0.023,-0.01,-0.002
1670342765.599968,-9.34,0.111,4.53,0.09620000000000001,0.7111000000000001,0.24780000000000002,0.02,-0.004,-0.003
1670342765.639968,-9.315,0.1,4.61,0.0984,0.7125,0.2513,0.021,-0.01,-0.003
1670342765.679968,-9.235,0.075,4.625,0.0984,0.7105,0.2487,0.021,-0.007,0.0
1670342765.719968,-9.288,0.066,4.593,0.0979,0.7115,0.2492,0.024,-0.02,-0.02
1670342765.759968,-9.305,0.016,4.5520000000000005,0.09340000000000001,0.7078,0.2508,0.023,-0.019,-0.02
1670342765.799968,-9.258000000000001,0.045,4.668,0.09910000000000001,0.7080000000000001,0.251,0.009000000000000001,-0.021,-0.016
1670342765.839968,-9.346,0.068,4.547,0.0961,0.7119000000000001,0.2477,0.018000000000000002,-0.012,-0.014
1670342765.879968,-9.321,0.059000000000000004,4.575,0.0979,0.7115,0.2509,0.023,-0.012,-0.014
1670342765.919968,-9.288,0.025,4.627,0.09670000000000001,0.7102,0.2506,0.02,-0.003,-0.009000000000000001
1670342765.9599679,-9.255,-0.052000000000000005,4.626,0.09770000000000001,0.7088,0.24810000000000001,0.009000000000000001,-0.004,-0.016
1670342765.999968,-9.346,0.056,4.634,0.09530000000000001,0.7085,0.2528,0.004,-0.014,-0.007
1670342766.039968,-9.412,0.11,4.527,0.1004,0.7118,0.2489,0.024,-0.019,0.0
1670342766.079967,-9.316,0.056,4.609,0.0988,0.7119000000000001,0.2479,0.029,-0.005,-0.012
1670342766.119967,-9.286,0.043000000000000003,4.518,0.09870000000000001,0.7109000000000001,0.25120000000000003,0.028,-0.008,-0.009000000000000001
1670342766.159967,-9.3,0.02,4.551,0.1003,0.7138,0.2487,0.01,-0.017,0.0
1670342766.199967,-9.317,0.064,4.583,0.0974,0.7121000000000001,0.25020000000000003,0.015,-0.027,-0.011
1670342766.239967,-9.304,0.055,4.648,0.0979,0.7101000000000001,0.2482,0.025,-0.019,-0.02
1670342766.279967,-9.279,0.041,4.591,0.0988,0.7106,0.2487,0.021,-0.022,-0.013000000000000001
1670342766.319967,-9.35,0.009000000000000001,4.537,0.0984,0.7110000000000001,0.25070000000000003,0.018000000000000002,-0.008,-0.003
1670342766.359967,-9.311,0.083,4.589,0.0978,0.7119000000000001,0.2497,0.015,0.001,-0.002
1670342766.399967,-9.239,0.066,4.61,0.0995,0.7096,0.2487,0.025,-0.006,0.0
1670342766.439967,-9.284,0.04,4.531,0.0983,0.7093,0.2511,0.023,-0.006,-0.002
1670342766.479967,-9.33,0.116,4.657,0.09730000000000001,0.7096,0.2518,0.018000000000000002,-0.013000000000000001,-0.008
1670342766.519967,-9.338000000000001,0.061,4.598,0.09730000000000001,0.7074,0.24930000000000002,0.021,-0.022,-0.02
1670342766.559967,-9.336,0.038,4.589,0.09970000000000001,0.7110000000000001,0.24730000000000002,0.008,-0.021,-0.017
1670342766.599967,-9.28,0.077,4.54,0.0965,0.7102,0.25,0.008,-0.022,-0.004
1670342766.639967,-9.309000000000001,0.062,4.541,0.0978,0.7120000000000001,0.24750000000000003,0.025,-0.018000000000000002,-0.014
1670342766.679967,-9.367,0.078,4.517,0.0961,0.7121000000000001,0.2529,0.024,-0.009000000000000001,-0.013000000000000001
1670342766.719967,-9.315,0.032,4.525,0.0954,0.7085,0.2565,0.02,-0.008,-0.01
1670342766.7599669,-9.255,0.004,4.5520000000000005,0.09720000000000001,0.7121000000000001,0.24700000000000003,0.004,-0.021,-0.003
1670342766.799967,-9.290000000000001,0.123,4.648,0.0985,0.7099000000000001,0.2497,0.023,-0.023,0.005
1670342766.839967,-9.351,0.014,4.537,0.09870000000000001,0.7112,0.2489,0.039,-0.001,-0.013000000000000001
1670342766.879967,-9.264,0.132,4.598,0.0994,0.7097,0.25,0.03,-0.007,-0.014
1670342766.919967,-9.312,0.001,4.492,0.0863,0.7045,0.2596,0.01,-0.023,0.002
1670342766.959967,-9.364,0.092,4.5600000000000005,0.098,0.7105,0.24710000000000001,0.006,-0.016,0.004
1670342766.9999669,-9.327,0.126,4.6370000000000005,0.1009,0.7086,0.24760000000000001,0.019,-0.01,-0.01
1670342767.039967,-9.299,-0.013000000000000001,4.6290000000000004,0.099,0.7115,0.2508,0.005,-0.002,-0.01
1670342767.079967,-9.352,0.10200000000000001,4.634,0.0971,0.7099000000000001,0.2492,-0.009000000000000001,0.003,-0.002
1670342767.119967,-9.377,-0.024,4.572,0.09770000000000001,0.7122,0.24680000000000002,-0.011,0.017,0.016
1670342767.159967,-9.329,0.14200000000000002,4.601,0.0858,0.7090000000000001,0.25,-0.009000000000000001,0.015,0.007
1670342767.199966,-9.263,0.111,4.581,0.0984,0.7118,0.2464,0.026000000000000002,0.005,0.005
1670342767.239966,-9.331,0.107,4.496,0.0947,0.7110000000000001,0.24710000000000001,0.036000000000000004,-0.018000000000000002,-0.011
1670342767.279966,-9.35,0.091,4.447,0.09620000000000001,0.7116,0.25120000000000003,0.033,-0.029,-0.011
1670342767.319966,-9.372,0.038,4.539,0.09970000000000001,0.7102,0.23340000000000002,0.031,-0.046,-0.017
1670342767.359966,-9.306000000000001,0.113,4.5760000000000005,0.09770000000000001,0.7118,0.2503,0.035,-0.047,-0.015
1670342767.399966,-9.293000000000001,0.055,4.648,0.0988,0.7094,0.24680000000000002,0.03,-0.04,-0.027
1670342767.439966,-9.291,0.037,4.634,0.09720000000000001,0.7079000000000001,0.2576,0.031,-0.029,-0.019
1670342767.479966,-9.26,0.04,4.6450000000000005,0.0998,0.7088,0.2497,0.019,-0.03,-0.014
1670342767.519966,-9.274000000000001,0.055,4.647,0.0975,0.7108,0.2497,0.011,-0.032,-0.015
1670342767.5599658,-9.332,0.13,4.567,0.09820000000000001,0.7090000000000001,0.2492,0.019,-0.016,-0.001
1670342767.599966,-9.336,0.059000000000000004,4.601,0.0978,0.7091000000000001,0.2518,0.035,0.001,-0.001
1670342767.639966,-9.245000000000001,0.14400000000000002,4.469,0.0975,0.7094,0.24810000000000001,0.037,0.002,-0.007
1670342767.679966,-9.336,0.11800000000000001,4.5520000000000005,0.09920000000000001,0.7094,0.2503,0.027,-0.012,0.0
1670342767.719966,-9.34,0.116,4.636,0.10260000000000001,0.7107,0.2485,0.023,-0.012,-0.005
1670342767.759966,-9.302,0.135,4.575,0.0961,0.7066,0.2506,0.023,-0.023,-0.019
1670342767.7999659,-9.306000000000001,0.008,4.569,0.0981,0.7104,0.2509,0.007,-0.03,-0.024
1670342767.839966,-9.333,0.145,4.545,0.0993,0.7089000000000001,0.25,-0.006,-0.035,-0.018000000000000002
1670342767.879966,-9.31,0.076,4.591,0.0956,0.7063,0.2489,-0.004,-0.013000000000000001,-0.02
1670342767.919966,-9.343,0.116,4.593,0.0984,0.7099000000000001,0.24710000000000001,0.01,-0.008,-0.011
1670342767.959966,-9.287,0.037,4.529,0.0946,0.7078,0.255,0.015,-0.014,-0.01
1670342767.999966,-9.293000000000001,0.085,4.612,0.09680000000000001,0.7093,0.2509,0.022,-0.013000000000000001,-0.012
1670342768.0399659,-9.272,0.049,4.654,0.09970000000000001,0.7110000000000001,0.24960000000000002,0.024,-0.019,-0.017
1670342768.079966,-9.295,0.007,4.477,0.0965,0.7115,0.25020000000000003,0.021,-0.023,-0.013000000000000001
1670342768.119966,-9.348,0.092,4.5520000000000005,0.098,0.7086,0.2484,0.01,-0.013000000000000001,-0.009000000000000001
1670342768.159966,-9.335,0.088,4.585,0.0952,0.7076,0.24910000000000002,0.019,-0.009000000000000001,-0.007
1670342768.199966,-9.27,0.073,4.621,0.09570000000000001,0.7091000000000001,0.2514,0.019,-0.007,-0.005
1670342768.239965,-9.346,0.054,4.547,0.0961,0.7057,0.2487,0.021,-0.006,-0.01
1670342768.279965,-9.297,0.041,4.657,0.09860000000000001,0.7127,0.24960000000000002,0.002,-0.009000000000000001,-0.014
1670342768.319965,-9.324,0.08600000000000001,4.53,0.0978,0.7125,0.2518,0.003,-0.026000000000000002,-0.009000000000000001
1670342768.3599648,-9.271,0.14400000000000002,4.6290000000000004,0.0976,0.7099000000000001,0.2497,0.022,-0.025,-0.003
1670342768.399965,-9.291,-0.011,4.596,0.0964,0.7099000000000001,0.25120000000000003,0.037,-0.004,-0.014
1670342768.439965,-9.242,0.098,4.554,0.09960000000000001,0.7090000000000001,0.24880000000000002,0.032,-0.015,-0.006
1670342768.479965,-9.318,0.038,4.501,0.0983,0.7116,0.2518,0.015,-0.025,-0.002
1670342768.519965,-9.323,0.052000000000000005,4.519,0.0959,0.7099000000000001,0.2485,0.028,-0.02,-0.012
1670342768.559965,-9.334,0.123,4.686,0.0989,0.7095,0.2499,0.024,-0.023,-0.02
1670342768.5999649,-9.312,-0.049,4.575,0.09770000000000001,0.7098,0.2525,0.008,-0.018000000000000002,-0.01
1670342768.639965,-9.339,0.17200000000000001,4.664,0.10060000000000001,0.7113,0.2523,0.002,-0.01,-0.003
1670342768.679965,-9.375,0.062,4.566,0.0864,0.7091000000000001,0.2536,0.015,-0.005,-0.003
1670342768.719965,-9.247,0.10400000000000001,4.561,0.0978,0.7110000000000001,0.2519,0.031,-0.004,-0.004
1670342768.759965,-9.277000000000001,0.076,4.569,0.09860000000000001,0.7083,0.2518,0.027,-0.014,-0.009000000000000001
1670342768.799965,-9.316,0.076,4.492,0.09970000000000001,0.7092,0.24860000000000002,0.031,-0.022,-0.013000000000000001
1670342768.8399649,-9.301,0.069,4.579,0.0989,0.7089000000000001,0.2494,0.028,-0.017,-0.023
1670342768.879965,-9.337,0.052000000000000005,4.542,0.0998,0.7104,0.2514,0.012,-0.018000000000000002,-0.018000000000000002
1670342768.919965,-9.261000000000001,0.057,4.627,0.09820000000000001,0.7082,0.2479,0.01,-0.016,-0.016
1670342768.959965,-9.285,0.033,4.558,0.0989,0.7112,0.2506,0.004,-0.016,-0.017
1670342768.999965,-9.309000000000001,0.075,4.603,0.09960000000000001,0.7117,0.2456,0.008,-0.015,-0.016
1670342769.039965,-9.223,0.044,4.714,0.1,0.7098,0.25070000000000003,0.009000000000000001,-0.014,-0.013000000000000001
1670342769.0799649,-9.33,0.029,4.597,0.09720000000000001,0.7122,0.252,0.008,-0.017,-0.018000000000000002
1670342769.119965,-9.283,-0.01,4.607,0.0942,0.7104,0.24710000000000001,0.01,-0.029,-0.02
1670342769.159965,-9.33,0.063,4.57,0.0921,0.7109000000000001,0.25370000000000004,0.021,-0.025,0.003
1670342769.199965,-9.376,-0.03,4.5760000000000005,0.0993,0.7110000000000001,0.24550000000000002,0.03,-0.006,-0.01
1670342769.239965,-9.303,0.08600000000000001,4.566,0.09820000000000001,0.7065,0.2565,0.044,-0.002,-0.012
1670342769.279964,-9.272,0.017,4.572,0.0985,0.7103,0.25120000000000003,0.018000000000000002,-0.009000000000000001,0.0
1670342769.319964,-9.282,0.074,4.594,0.0976,0.7099000000000001,0.2514,0.006,-0.017,-0.007
1670342769.359964,-9.368,0.10200000000000001,4.6000000000000005,0.09920000000000001,0.7121000000000001,0.2529,0.019,-0.02,-0.016
1670342769.3999639,-9.313,0.025,4.603,0.099,0.7118,0.252,0.023,-0.021,-0.026000000000000002
1670342769.439964,-9.283,0.084,4.597,0.0954,0.7101000000000001,0.2511,0.018000000000000002,-0.014,-0.008
1670342769.479964,-9.306000000000001,0.04,4.543,0.0965,0.7100000000000001,0.2513,0.009000000000000001,-0.004,0.001
1670342769.519964,-9.303,0.08,4.59,0.09920000000000001,0.7125,0.2525,0.022,-0.002,-0.003
1670342769.559964,-9.272,0.057,4.6450000000000005,0.0984,0.7113,0.2494,0.025,-0.009000000000000001,-0.005
1670342769.599964,-9.315,0.07,4.593,0.09970000000000001,0.7122,0.2501,0.026000000000000002,-0.011,-0.011
1670342769.6399639,-9.315,0.048,4.554,0.0993,0.7104,0.25020000000000003,0.03,-0.022,-0.016
1670342769.679964,-9.279,0.008,4.524,0.1008,0.7101000000000001,0.25020000000000003,0.015,-0.021,-0.018000000000000002
1670342769.719964,-9.294,0.038,4.555,0.09860000000000001,0.7101000000000001,0.2508,0.011,-0.02,-0.01
1670342769.759964,-9.312,0.041,4.551,0.0969,0.7116,0.2523,0.007,-0.014,-0.007
1670342769.799964,-9.305,0.058,4.542,0.097,0.7117,0.249,0.026000000000000002,-0.007,-0.003
1670342769.839964,-9.3,0.025,4.543,0.0981,0.7113,0.24810000000000001,0.024,-0.009000000000000001,-0.007
1670342769.8799639,-9.296,0.047,4.578,0.09720000000000001,0.7111000000000001,0.2494,0.023,-0.007,-0.006
1670342769.919964,-9.32,0.08700000000000001,4.575,0.09620000000000001,0.7107,0.2495,0.022,-0.019,-0.007
1670342769.959964,-9.216000000000001,0.008,4.452,0.1009,0.7121000000000001,0.24980000000000002,0.015,-0.034,-0.011
1670342769.999964,-9.31,0.101,4.5840000000000005,0.098,0.7101000000000001,0.25170000000000003,0.034,-0.029,0.0
1670342770.039964,-9.377,0.023,4.565,0.098,0.7101000000000001,0.24880000000000002,0.038,-0.009000000000000001,-0.008
1670342770.079964,-9.265,0.08700000000000001,4.545,0.0993,0.7110000000000001,0.24910000000000002,0.034,-0.006,-0.015
1670342770.119964,-9.274000000000001,0.01,4.549,0.097,0.7091000000000001,0.24860000000000002,0.01,-0.014,0.0
1670342770.159964,-9.3,0.094,4.605,0.0975,0.7113,0.2525,0.017,-0.013000000000000001,-0.009000000000000001
1670342770.199964,-9.31,0.11900000000000001,4.616,0.0965,0.7089000000000001,0.2533,0.02,-0.015,-0.016
1670342770.239964,-9.293000000000001,-0.01,4.575,0.0956,0.7094,0.24730000000000002,0.01,-0.027,-0.027
1670342770.279964,-9.297,0.056,4.509,0.0976,0.7127,0.24980000000000002,0.005,-0.02,-0.006
1670342770.319963,-9.359,0.012,4.549,0.09870000000000001,0.7088,0.2501,0.021,-0.011,-0.005
1670342770.359963,-9.26,0.091,4.57,0.09870000000000001,0.7107,0.25220000000000004,0.02,0.0,-0.003
1670342770.399963,-9.326,0.076,4.522,0.09910000000000001,0.7102,0.25020000000000003,0.027,-0.01,-0.001
1670342770.4399629,-9.269,0.039,4.562,0.0896,0.7080000000000001,0.252,0.031,-0.016,-0.001
1670342770.479963,-9.379,0.077,4.484,0.09820000000000001,0.7104,0.2506,0.03,-0.025,-0.011
1670342770.519963,-9.343,0.041,4.507,0.0989,0.7090000000000001,0.24680000000000002,0.016,-0.027,-0.013000000000000001
1670342770.559963,-9.302,0.028,4.5680000000000005,0.10010000000000001,0.7106,0.2484,0.001,-0.02,-0.011
1670342770.599963,-9.354000000000001,0.084,4.566,0.0995,0.7077,0.24910000000000002,0.006,-0.01,-0.007
1670342770.639963,-9.289,0.052000000000000005,4.597,0.09920000000000001,0.7083,0.2494,0.013000000000000001,-0.009000000000000001,-0.009000000000000001
1670342770.6799629,-9.279,0.032,4.546,0.0892,0.7105,0.24980000000000002,0.015,-0.011,-0.003
1670342770.719963,-9.33,0.013000000000000001,4.476,0.0979,0.7107,0.24880000000000002,0.019,-0.007,-0.002
1670342770.759963,-9.326,0.064,4.553,0.101,0.7099000000000001,0.25220000000000004,0.024,-0.004,-0.004
1670342770.799963,-9.284,0.034,4.5920000000000005,0.09870000000000001,0.7093,0.25170000000000003,0.014,-0.01,-0.007
1670342770.839963,-9.299,0.06,4.619,0.10060000000000001,0.7067,0.2494,0.015,-0.005,0.0
1670342770.879963,-9.312,0.126,4.561,0.09670000000000001,0.7102,0.24810000000000001,0.029,0.0,0.008
1670342770.919963,-9.353,0.002,4.53,0.09240000000000001,0.7118,0.2584,0.033,-0.004,-0.007
1670342770.959963,-9.28,0.117,4.518,0.0915,0.7087,0.2662,0.016,-0.009000000000000001,-0.003
1670342770.999963,-9.248,0.07100000000000001,4.5,0.09720000000000001,0.7114,0.2666,0.011,-0.014,-0.007
1670342771.039963,-9.33,0.08,4.5200000000000005,0.0961,0.7094,0.2204,0.006,-0.016,-0.012
1670342771.079963,-9.339,-0.007,4.5760000000000005,0.09720000000000001,0.7118,0.2356,0.006,-0.021,-0.019
1670342771.119963,-9.306000000000001,0.14100000000000001,4.622,0.09870000000000001,0.7110000000000001,0.24760000000000001,0.002,-0.032,-0.009000000000000001
1670342771.159963,-9.402000000000001,0.025,4.534,0.099,0.7084,0.2495,0.002,-0.013000000000000001,-0.007
1670342771.199963,-9.278,0.11,4.595,0.09920000000000001,0.7101000000000001,0.2506,0.017,-0.004,-0.001
1670342771.239963,-9.246,0.057,4.622,0.09920000000000001,0.7084,0.2492,0.031,-0.007,0.0
1670342771.279963,-9.294,0.074,4.561,0.1032,0.7110000000000001,0.24860000000000002,0.037,-0.022,-0.01
1670342771.319963,-9.361,0.05,4.521,0.0995,0.7119000000000001,0.2494,0.029,-0.023,-0.013000000000000001
1670342771.359962,-9.302,0.014,4.543,0.09970000000000001,0.7119000000000001,0.2487,0.016,-0.025,-0.011
1670342771.399962,-9.286,0.049,4.513,0.10060000000000001,0.7088,0.2489,0.01,-0.02,-0.008
1670342771.439962,-9.293000000000001,0.056,4.5760000000000005,0.10070000000000001,0.7096,0.25020000000000003,0.018000000000000002,-0.011,-0.008
1670342771.4799619,-9.297,0.077,4.622,0.0994,0.7121000000000001,0.24780000000000002,0.018000000000000002,-0.016,-0.017
1670342771.519962,-9.329,0.022,4.542,0.0993,0.7138,0.24780000000000002,0.018000000000000002,-0.01,-0.004
1670342771.559962,-9.322000000000001,0.08,4.542,0.1017,0.7126,0.2497,0.014,-0.007,-0.001
1670342771.599962,-9.287,0.073,4.564,0.09820000000000001,0.7115,0.2467,0.02,-0.015,-0.009000000000000001
1670342771.639962,-9.283,0.017,4.581,0.1003,0.7099000000000001,0.2497,0.017,-0.019,-0.013000000000000001
1670342771.679962,-9.406,0.084,4.604,0.0994,0.7119000000000001,0.2531,0.016,-0.023,-0.008
1670342771.719962,-9.393,0.078,4.476,0.09720000000000001,0.7071000000000001,0.24910000000000002,0.032,-0.023,0.0
1670342771.759962,-9.283,0.048,4.551,0.0993,0.7118,0.24910000000000002,0.026000000000000002,-0.009000000000000001,-0.006
1670342771.799962,-9.297,0.113,4.517,0.09910000000000001,0.7093,0.24700000000000003,0.029,-0.01,-0.009000000000000001
1670342771.839962,-9.346,0.082,4.448,0.0989,0.7066,0.25020000000000003,0.019,-0.013000000000000001,-0.01
1670342771.879962,-9.35,0.093,4.588,0.09920000000000001,0.7102,0.24810000000000001,0.022,-0.014,-0.01
1670342771.919962,-9.316,0.052000000000000005,4.655,0.0999,0.7103,0.2489,0.013000000000000001,-0.023,-0.026000000000000002
1670342771.959962,-9.323,0.05,4.546,0.096,0.7129000000000001,0.2514,-0.004,-0.024,-0.005
1670342771.999962,-9.333,0.084,4.545,0.1008,0.7100000000000001,0.2509,0.007,-0.02,-0.008
1670342772.039962,-9.314,0.115,4.572,0.1017,0.7119000000000001,0.24680000000000002,0.025,-0.005,0.0
1670342772.079962,-9.276,0.07,4.496,0.0984,0.7115,0.2501,0.025,-0.012,0.004
1670342772.119962,-9.282,0.083,4.523,0.0975,0.7127,0.2506,0.059000000000000004,0.0,-0.013000000000000001
1670342772.159962,-9.327,0.098,4.583,0.09920000000000001,0.7105,0.2494,0.066,-0.01,-0.013000000000000001
1670342772.199962,-9.281,0.04,4.5520000000000005,0.0976,0.7082,0.24960000000000002,0.027,-0.029,-0.015
1670342772.239962,-9.3,0.022,4.5040000000000004,0.1003,0.7104,0.24980000000000002,-0.013000000000000001,-0.047,-0.001
1670342772.279962,-9.324,0.107,4.61,0.0979,0.7062,0.24750000000000003,-0.002,-0.037,-0.006
1670342772.319962,-9.312,0.097,4.612,0.09860000000000001,0.7083,0.2501,0.006,-0.013000000000000001,-0.006
1670342772.359962,-9.296,0.113,4.652,0.09920000000000001,0.7063,0.25570000000000004,0.023,-0.015,-0.018000000000000002
1670342772.399961,-9.301,0.061,4.557,0.097,0.7106,0.25070000000000003,0.016,-0.006,-0.016
1670342772.439961,-9.25,0.059000000000000004,4.606,0.09720000000000001,0.7077,0.2497,0.012,-0.016,-0.001
1670342772.479961,-9.3,0.11,4.639,0.10070000000000001,0.7100000000000001,0.24860000000000002,0.019,-0.02,-0.009000000000000001
1670342772.5199609,-9.274000000000001,0.09,4.588,0.0978,0.7083,0.25020000000000003,0.024,-0.022,-0.019
1670342772.559961,-9.257,0.02,4.6000000000000005,0.0978,0.7094,0.24760000000000001,0.018000000000000002,-0.03,-0.023
1670342772.599961,-9.332,0.079,4.555,0.1004,0.7088,0.2495,0.02,-0.03,0.004
1670342772.639961,-9.405,0.158,4.601,0.0989,0.7094,0.2504,0.012,-0.006,-0.008
1670342772.679961,-9.324,0.099,4.569,0.0994,0.7069000000000001,0.25070000000000003,0.023,-0.001,-0.012
1670342772.719961,-9.275,0.074,4.5520000000000005,0.09920000000000001,0.7103,0.2509,0.006,-0.008,-0.008
1670342772.759961,-9.259,0.052000000000000005,4.566,0.0981,0.7083,0.2501,0.003,-0.013000000000000001,-0.009000000000000001
1670342772.799961,-9.323,0.084,4.517,0.10010000000000001,0.7083,0.29050000000000004,0.01,-0.017,-0.015
1670342772.839961,-9.287,0.089,4.634,0.09870000000000001,0.7090000000000001,0.2548,0.011,-0.026000000000000002,-0.026000000000000002
1670342772.799961,-9.303,0.121,4.633,0.0951,0.7082,0.25730000000000003,0.019,-0.021,-0.012
1670342772.839961,-9.28,0.081,4.539,0.0999,0.7090000000000001,0.2602,0.014,-0.007,-0.002
1670342772.879961,-9.274000000000001,0.073,4.478,0.09860000000000001,0.7094,0.2485,0.023,-0.007,-0.013000000000000001
1670342772.919961,-9.248,0.062,4.564,0.0989,0.7090000000000001,0.249,0.032,-0.009000000000000001,-0.003
1670342772.959961,-9.284,0.095,4.616,0.0981,0.7109000000000001,0.2501,0.022,-0.019,-0.006
1670342772.999961,-9.318,0.082,4.577,0.0976,0.7097,0.24830000000000002,0.024,-0.022,-0.016
1670342773.039961,-9.311,0.055,4.609,0.09870000000000001,0.7094,0.2508,0.018000000000000002,-0.029,-0.015
1670342773.079961,-9.309000000000001,0.073,4.546,0.0999,0.7111000000000001,0.24750000000000003,0.011,-0.019,-0.008
1670342773.119961,-9.304,0.073,4.61,0.0989,0.7087,0.2489,0.014,-0.017,-0.016
1670342773.159961,-9.328,0.078,4.503,0.0983,0.7088,0.2497,0.023,-0.007,-0.014
1670342773.199961,-9.33,0.052000000000000005,4.572,0.1,0.7122,0.24980000000000002,0.025,-0.012,-0.007
1670342773.239961,-9.278,0.073,4.601,0.1008,0.7080000000000001,0.2511,0.023,-0.009000000000000001,-0.008
1670342773.279961,-9.293000000000001,0.08700000000000001,4.554,0.10070000000000001,0.7112,0.24780000000000002,0.021,-0.011,-0.01
1670342773.319961,-9.208,0.045,4.572,0.0998,0.7097,0.24880000000000002,0.021,-0.016,-0.007
1670342773.359961,-9.26,0.10400000000000001,4.555,0.09860000000000001,0.7104,0.24830000000000002,0.013000000000000001,-0.01,0.012
1670342773.399961,-9.375,0.028,4.541,0.09910000000000001,0.7126,0.25120000000000003,0.03,-0.008,-0.002
1670342773.43996,-9.263,0.13,4.555,0.10250000000000001,0.7119000000000001,0.2506,0.03,-0.006,-0.014
1670342773.47996,-9.322000000000001,0.04,4.5,0.0995,0.7115,0.2479,0.009000000000000001,-0.01,0.001
1670342773.51996,-9.279,0.073,4.578,0.1008,0.7094,0.24700000000000003,-0.001,-0.016,0.0
1670342773.55996,-9.305,0.137,4.626,0.1,0.7094,0.2504,0.012,-0.019,-0.015
1670342773.59996,-9.262,0.035,4.591,0.09770000000000001,0.7083,0.2518,0.02,-0.025,-0.029
1670342773.63996,-9.232,0.059000000000000004,4.671,0.0998,0.7097,0.2504,0.016,-0.03,-0.013000000000000001
1670342773.67996,-9.335,0.026000000000000002,4.646,0.0981,0.7112,0.24980000000000002,0.016,-0.015,-0.003
1670342773.71996,-9.273,0.088,4.566,0.0984,0.7087,0.2484,0.018000000000000002,-0.005,-0.003
1670342773.75996,-9.241,0.114,4.604,0.0983,0.7092,0.25420000000000004,0.029,-0.008,-0.002
1670342773.79996,-9.266,0.092,4.668,0.1003,0.7116,0.24860000000000002,0.026000000000000002,-0.016,-0.011
1670342773.83996,-9.302,0.114,4.6690000000000005,0.097,0.7093,0.25420000000000004,0.035,-0.021,-0.02
1670342773.87996,-9.326,0.079,4.603,0.1012,0.7102,0.2506,0.013000000000000001,-0.021,-0.013000000000000001
1670342773.91996,-9.304,0.058,4.53,0.0993,0.7078,0.2504,0.001,-0.016,-0.007
1670342773.95996,-9.352,0.127,4.557,0.1,0.7097,0.2508,0.011,-0.006,-0.004
1670342773.99996,-9.308,0.113,4.566,0.099,0.7093,0.24930000000000002,0.019,-0.004,-0.011
1670342774.03996,-9.325000000000001,0.07,4.551,0.0989,0.7099000000000001,0.2509,0.014,-0.006,-0.001
1670342774.07996,-9.309000000000001,0.068,4.594,0.10010000000000001,0.7104,0.2509,0.014,-0.003,-0.003
1670342774.11996,-9.26,0.081,4.585,0.0979,0.7095,0.2499,0.009000000000000001,-0.018000000000000002,-0.013000000000000001
1670342774.15996,-9.287,0.067,4.642,0.0988,0.7118,0.2484,0.009000000000000001,-0.028,-0.014
1670342774.19996,-9.279,0.137,4.615,0.1,0.7113,0.2509,0.026000000000000002,-0.021,-0.01
1670342774.23996,-9.295,0.0,4.569,0.09770000000000001,0.7076,0.2504,0.031,-0.006,-0.019
1670342774.27996,-9.232,0.123,4.589,0.0882,0.7069000000000001,0.2524,0.028,-0.006,-0.014
1670342774.31996,-9.354000000000001,0.027,4.4510000000000005,0.099,0.7115,0.24980000000000002,0.009000000000000001,-0.019,-0.006
1670342774.35996,-9.283,0.076,4.571,0.10200000000000001,0.7108,0.25220000000000004,0.014,-0.024,-0.01
1670342774.39996,-9.364,0.134,4.614,0.098,0.7078,0.25270000000000004,0.017,-0.018000000000000002,-0.026000000000000002
1670342774.43996,-9.385,-0.001,4.5920000000000005,0.1015,0.7102,0.25,0.008,-0.019,-0.016
1670342774.479959,-9.288,0.094,4.542,0.09960000000000001,0.7101000000000001,0.24980000000000002,0.003,-0.014,-0.008
1670342774.519959,-9.332,-0.002,4.567,0.10020000000000001,0.7123,0.2607,0.018000000000000002,-0.004,-0.005
1670342774.559959,-9.227,0.099,4.546,0.0944,0.7115,0.2783,0.032,0.0,0.0
1670342774.599959,-9.27,0.062,4.534,0.09620000000000001,0.7044,0.2632,0.03,-0.014,-0.004
1670342774.639959,-9.269,0.082,4.641,0.0989,0.7074,0.23670000000000002,0.029,-0.018000000000000002,-0.013000000000000001
1670342774.679959,-9.321,0.075,4.626,0.0989,0.7092,0.25120000000000003,0.011,-0.025,-0.014
1670342774.719959,-9.264,0.056,4.556,0.1008,0.7091000000000001,0.2523,0.001,-0.023,-0.014
1670342774.759959,-9.303,0.082,4.579,0.0994,0.7091000000000001,0.2487,0.008,-0.019,-0.006
1670342774.799959,-9.309000000000001,0.095,4.666,0.0976,0.7112,0.24760000000000001,0.014,-0.012,-0.01
1670342774.839959,-9.358,0.052000000000000005,4.449,0.099,0.7105,0.2501,0.024,-0.005,-0.009000000000000001
1670342774.879959,-9.215,0.035,4.664,0.099,0.7109000000000001,0.2513,0.024,-0.015,-0.01
1670342774.919959,-9.265,0.068,4.722,0.1005,0.7113,0.2511,0.013000000000000001,-0.015,-0.011
1670342774.959959,-9.284,0.125,4.6610000000000005,0.0984,0.7074,0.24880000000000002,0.016,-0.02,0.003
1670342774.999959,-9.278,-0.007,4.582,0.09820000000000001,0.7102,0.24880000000000002,0.027,-0.001,-0.005
1670342775.039959,-9.247,0.135,4.575,0.099,0.7119000000000001,0.2497,0.026000000000000002,-0.008,-0.009000000000000001
1670342775.079959,-9.31,0.067,4.556,0.09820000000000001,0.7095,0.2549,0.025,-0.013000000000000001,-0.004
1670342775.119959,-9.349,0.101,4.548,0.09970000000000001,0.7093,0.25070000000000003,0.019,-0.013000000000000001,-0.001
1670342775.159959,-9.332,0.09,4.448,0.09920000000000001,0.7111000000000001,0.251,0.026000000000000002,-0.008,-0.016
1670342775.199959,-9.3,0.007,4.562,0.0978,0.7104,0.2489,0.017,-0.016,-0.019
1670342775.239959,-9.333,0.156,4.603,0.0989,0.7074,0.24930000000000002,0.004,-0.017,-0.003
1670342775.279959,-9.3,0.083,4.553,0.09860000000000001,0.7114,0.2526,0.013000000000000001,-0.01,-0.008
1670342775.319959,-9.306000000000001,0.109,4.487,0.0921,0.7097,0.25070000000000003,0.023,-0.004,-0.005
1670342775.359959,-9.272,0.083,4.624,0.0975,0.7085,0.2518,0.031,-0.015,-0.003
1670342775.3999588,-9.356,0.096,4.458,0.099,0.7117,0.24980000000000002,0.023,-0.023,-0.013000000000000001
1670342775.439959,-9.329,0.09,4.595,0.1003,0.7078,0.2509,0.02,-0.023,-0.012
1670342775.479959,-9.321,0.055,4.554,0.10060000000000001,0.7101000000000001,0.2482,0.014,-0.021,-0.015
1670342775.519958,-9.307,0.07100000000000001,4.54,0.0994,0.7098,0.2461,0.007,-0.014,-0.001
1670342775.559958,-9.308,0.091,4.561,0.09730000000000001,0.7101000000000001,0.251,0.014,-0.012,-0.009000000000000001
1670342775.599958,-9.283,0.11,4.675,0.0989,0.7088,0.2509,0.021,-0.005,-0.008
1670342775.639958,-9.282,0.062,4.616,0.1003,0.7056,0.25170000000000003,0.017,-0.007,-0.013000000000000001
1670342775.679958,-9.264,0.047,4.555,0.09910000000000001,0.7101000000000001,0.2492,0.009000000000000001,-0.013000000000000001,-0.009000000000000001
1670342775.719958,-9.261000000000001,0.081,4.582,0.09870000000000001,0.7105,0.24760000000000001,0.011,-0.027,-0.002
1670342775.759958,-9.332,0.147,4.5120000000000005,0.09860000000000001,0.7089000000000001,0.24930000000000002,0.034,-0.027,0.001
1670342775.799958,-9.334,0.043000000000000003,4.594,0.0975,0.7071000000000001,0.2487,0.036000000000000004,-0.012,-0.012
1670342775.839958,-9.263,0.113,4.499,0.0978,0.7087,0.249,0.034,-0.012,-0.013000000000000001
1670342775.879958,-9.298,0.053,4.54,0.0976,0.7091000000000001,0.25220000000000004,0.013000000000000001,-0.014,-0.001
1670342775.919958,-9.309000000000001,0.121,4.664,0.0984,0.7106,0.2479,0.017,-0.019,-0.008
1670342775.959958,-9.35,0.157,4.606,0.09670000000000001,0.7121000000000001,0.24930000000000002,0.015,0.006,-0.004
1670342775.999958,-9.314,-0.101,4.518,0.0976,0.7086,0.2503,-0.035,0.017,0.032
1670342776.039958,-9.339,0.249,4.591,0.0985,0.7087,0.2509,-0.022,0.018000000000000002,0.02
1670342776.079958,-9.342,0.075,4.472,0.0975,0.7105,0.2495,0.037,-0.002,-0.005
1670342776.119958,-9.331,0.201,4.5440000000000005,0.0979,0.7104,0.2501,0.063,-0.031,-0.035
1670342776.159958,-9.272,0.10200000000000001,4.448,0.10010000000000001,0.7093,0.25070000000000003,0.051000000000000004,-0.048,-0.032
1670342776.1999578,-9.337,0.177,4.572,0.09720000000000001,0.7091000000000001,0.2525,0.042,-0.042,-0.027
1670342776.239958,-9.318,0.10400000000000001,4.5760000000000005,0.09730000000000001,0.7090000000000001,0.2503,0.034,-0.036000000000000004,-0.027
1670342776.279958,-9.279,0.068,4.658,0.0999,0.7096,0.2511,0.011,-0.033,-0.016
1670342776.319958,-9.293000000000001,0.125,4.5360000000000005,0.09820000000000001,0.7080000000000001,0.24700000000000003,0.012,-0.028,-0.017
1670342776.359958,-9.275,0.08600000000000001,4.538,0.0965,0.7093,0.2634,0.021,-0.014,-0.015
1670342776.399958,-9.296,0.088,4.567,0.09870000000000001,0.7071000000000001,0.2606,0.014,-0.009000000000000001,-0.012
1670342776.4399579,-9.27,0.08600000000000001,4.641,0.0959,0.7099000000000001,0.2601,0.016,-0.009000000000000001,-0.015
1670342776.479958,-9.261000000000001,0.095,4.591,0.0984,0.7112,0.2316,0.021,-0.015,-0.01
1670342776.519958,-9.296,0.10400000000000001,4.597,0.09530000000000001,0.7079000000000001,0.2464,0.018000000000000002,-0.016,-0.012
1670342776.559958,-9.264,0.049,4.591,0.08990000000000001,0.7083,0.2544,0.009000000000000001,-0.023,-0.017
1670342776.599958,-9.245000000000001,0.176,4.673,0.0952,0.7091000000000001,0.24980000000000002,0.01,-0.018000000000000002,0.002
1670342776.639957,-9.357,0.02,4.589,0.0945,0.7103,0.25,0.023,-0.001,-0.006
1670342776.679957,-9.246,0.134,4.615,0.095,0.7062,0.2504,0.026000000000000002,0.0,-0.017
1670342776.719957,-9.287,0.038,4.502,0.0984,0.7095,0.24980000000000002,0.018000000000000002,-0.008,-0.008
1670342776.759957,-9.266,0.079,4.627,0.095,0.7097,0.252,0.007,-0.011,-0.007
1670342776.799957,-9.298,0.14400000000000002,4.639,0.10060000000000001,0.7094,0.24980000000000002,0.016,-0.019,-0.015
1670342776.839957,-9.354000000000001,0.021,4.5760000000000005,0.0964,0.7094,0.2509,0.018000000000000002,-0.023,-0.027
1670342776.879957,-9.317,0.15,4.601,0.097,0.7080000000000001,0.2538,0.018000000000000002,-0.029,-0.013000000000000001
1670342776.919957,-9.331,0.015,4.5760000000000005,0.0978,0.7105,0.2501,0.019,-0.01,-0.001
1670342776.959957,-9.273,0.074,4.589,0.09670000000000001,0.7098,0.25,0.021,-0.003,0.0
1670342776.9999568,-9.312,0.097,4.549,0.09860000000000001,0.7111000000000001,0.253,0.028,-0.007,0.007
1670342777.039957,-9.287,0.108,4.5280000000000005,0.0989,0.7106,0.2485,0.029,-0.014,-0.004
1670342777.079957,-9.296,0.114,4.5760000000000005,0.097,0.7082,0.2499,0.044,-0.026000000000000002,-0.014
1670342777.119957,-9.317,0.078,4.564,0.09620000000000001,0.7101000000000001,0.25,0.034,-0.019,-0.02
1670342777.159957,-9.268,0.079,4.616,0.09870000000000001,0.7081000000000001,0.2508,0.011,-0.022,-0.011
1670342777.199957,-9.308,0.095,4.549,0.09720000000000001,0.7099000000000001,0.249,0.0,-0.02,-0.005
1670342777.2399569,-9.305,0.124,4.549,0.097,0.7082,0.25170000000000003,0.018000000000000002,-0.015,-0.011
1670342777.279957,-9.261000000000001,0.084,4.594,0.09430000000000001,0.7085,0.24860000000000002,0.031,-0.008,-0.011
1670342777.319957,-9.275,0.078,4.697,0.0966,0.7101000000000001,0.25170000000000003,0.026000000000000002,-0.007,-0.015
1670342777.359957,-9.25,0.056,4.575,0.09530000000000001,0.7091000000000001,0.2538,0.01,-0.017,-0.01
1670342777.399957,-9.261000000000001,0.068,4.64,0.0971,0.7081000000000001,0.2516,0.011,-0.029,-0.016
1670342777.439957,-9.314,0.198,4.548,0.0951,0.7083,0.2492,0.034,-0.026000000000000002,-0.001
1670342777.4799569,-9.312,-0.007,4.526,0.097,0.7087,0.25220000000000004,0.036000000000000004,-0.007,-0.013000000000000001
1670342777.519957,-9.264,0.098,4.45,0.0975,0.7087,0.2495,0.022,-0.013000000000000001,-0.011
1670342777.559957,-9.311,0.047,4.543,0.09290000000000001,0.7104,0.2521,0.011,-0.016,0.0
1670342777.599957,-9.308,0.117,4.59,0.0974,0.7106,0.2499,0.013000000000000001,-0.013000000000000001,-0.006
1670342777.639957,-9.309000000000001,0.137,4.612,0.09720000000000001,0.7091000000000001,0.24930000000000002,0.023,-0.017,-0.02
1670342777.679956,-9.342,0.013000000000000001,4.561,0.0993,0.7104,0.25220000000000004,0.014,-0.014,-0.02
1670342777.719956,-9.312,0.131,4.527,0.0952,0.7083,0.2528,0.009000000000000001,-0.012,-0.003
1670342777.759956,-9.319,0.042,4.542,0.09620000000000001,0.7110000000000001,0.2514,0.013000000000000001,-0.007,0.002
1670342777.7999558,-9.25,0.139,4.659,0.097,0.7108,0.2521,0.027,-0.003,-0.003
1670342777.839956,-9.263,0.123,4.66,0.0983,0.7096,0.2514,0.031,-0.014,-0.005
1670342777.879956,-9.27,0.111,4.583,0.0976,0.7078,0.2503,0.028,-0.016,-0.01
1670342777.919956,-9.357,0.124,4.63,0.09620000000000001,0.7097,0.25020000000000003,0.022,-0.021,-0.011
1670342777.959956,-9.306000000000001,0.074,4.521,0.0984,0.7105,0.2487,0.008,-0.019,-0.012
1670342777.999956,-9.268,0.06,4.537,0.0965,0.7099000000000001,0.2515,0.001,-0.016,-0.016
1670342778.0399559,-9.303,0.098,4.614,0.0925,0.7076,0.2564,0.006,-0.012,-0.016
1670342778.079956,-9.31,0.063,4.6450000000000005,0.0969,0.7096,0.25070000000000003,0.011,-0.013000000000000001,-0.01
1670342778.119956,-9.342,0.101,4.5600000000000005,0.0964,0.7101000000000001,0.2523,0.018000000000000002,-0.012,-0.009000000000000001
1670342778.159956,-9.275,0.063,4.572,0.0981,0.7097,0.2506,0.015,-0.017,-0.021
1670342778.199956,-9.236,0.001,4.628,0.0959,0.7090000000000001,0.2501,0.013000000000000001,-0.021,-0.009000000000000001
1670342778.239956,-9.354000000000001,0.081,4.567,0.09570000000000001,0.7118,0.268,0.026000000000000002,-0.023,0.001
1670342778.2799559,-9.411,0.083,4.64,0.09050000000000001,0.7071000000000001,0.25670000000000004,0.027,-0.003,-0.012
1670342778.319956,-9.263,0.053,4.564,0.0954,0.7105,0.2384,0.028,-0.01,-0.011
1670342778.359956,-9.303,0.063,4.572,0.09620000000000001,0.7091000000000001,0.2511,0.017,-0.018000000000000002,0.002
1670342778.399956,-9.324,0.093,4.627,0.09680000000000001,0.7115,0.251,0.016,-0.014,-0.009000000000000001
1670342778.439956,-9.26,-0.007,4.595,0.0969,0.7101000000000001,0.2543,0.018000000000000002,-0.014,-0.017
1670342778.479956,-9.272,0.101,4.657,0.0961,0.7094,0.25,0.002,-0.03,-0.008
1670342778.5199559,-9.322000000000001,0.024,4.569,0.09920000000000001,0.7118,0.25,0.008,-0.018000000000000002,0.0
1670342778.559956,-9.283,0.125,4.602,0.0965,0.7090000000000001,0.2545,0.026000000000000002,-0.002,-0.003
1670342778.599956,-9.214,0.066,4.588,0.0949,0.7104,0.2497,0.033,-0.005,-0.001
1670342778.639956,-9.339,0.079,4.577,0.0964,0.7123,0.25120000000000003,0.026000000000000002,-0.014,-0.01
1670342778.679956,-9.325000000000001,0.077,4.511,0.0964,0.7085,0.2528,0.029,-0.021,-0.01
1670342778.719955,-9.338000000000001,0.07200000000000001,4.57,0.096,0.7107,0.2506,0.025,-0.028,-0.017
1670342778.759955,-9.297,0.076,4.578,0.0981,0.7101000000000001,0.25,0.014,-0.027,-0.01
1670342778.799955,-9.261000000000001,0.067,4.627,0.095,0.7103,0.2544,0.023,-0.02,-0.011
