timestamp,acc_x,acc_y,acc_z,magn_x,magn_y,magn_z,gyro_x,gyro_y,gyro_z
1670356551.16,-9.624,-0.133,3.98,-0.6399,-0.3997,0.3562,0.008,0.033,-0.064
1670356551.2,-9.563,-0.133,3.98,-0.6436000000000001,-0.3997,0.3562,-0.003,0.026000000000000002,-0.059000000000000004
1670356551.24,-9.61,-0.15,3.962,-0.6383,-0.3971,0.3438,-0.011,0.021,-0.061
1670356551.28,-9.648,-0.14400000000000002,4.011,-0.6394000000000001,-0.39540000000000003,0.3285,-0.001,0.016,-0.058
1670356551.32,-9.666,-0.135,3.98,-0.6439,-0.3977,0.3598,0.004,0.01,-0.06
1670356551.36,-9.61,-0.192,4.037,-0.6398,-0.3966,0.31970000000000004,0.002,0.01,-0.059000000000000004
1670356551.4,-9.619,-0.092,3.991,-0.6375000000000001,-0.39480000000000004,0.33740000000000003,0.009000000000000001,0.013000000000000001,-0.052000000000000005
1670356551.44,-9.663,-0.182,3.996,-0.6376000000000001,-0.3947,0.33580000000000004,-0.001,0.02,-0.05
1670356551.48,-9.625,-0.145,4.0,-0.6457,-0.3981,0.3352,0.009000000000000001,0.02,-0.045
1670356551.52,-9.606,-0.121,4.021,-0.6367,-0.39380000000000004,0.3366,0.01,0.016,-0.05
1670356551.559999,-9.619,-0.122,4.024,-0.6405000000000001,-0.39680000000000004,0.33630000000000004,0.012,0.006,-0.055
1670356551.599999,-9.624,-0.132,4.038,-0.6528,-0.3997,0.3416,0.011,0.01,-0.064
1670356551.639999,-9.622,-0.166,4.029,-0.6396000000000001,-0.3975,0.33690000000000003,0.0,0.008,-0.062
1670356551.6799989,-9.622,-0.178,4.009,-0.6384000000000001,-0.3937,0.33680000000000004,-0.004,0.013000000000000001,-0.056
1670356551.719999,-9.624,-0.159,3.981,-0.6385000000000001,-0.39630000000000004,0.33530000000000004,-0.01,0.012,-0.052000000000000005
1670356551.759999,-9.625,-0.156,4.015,-0.6379,-0.3985,0.34190000000000004,0.001,0.014,-0.057
1670356551.799999,-9.626,-0.162,4.042,-0.6401,-0.39680000000000004,0.3391,0.006,0.011,-0.062
1670356551.839999,-9.602,-0.183,4.022,-0.6399,-0.39790000000000003,0.33440000000000003,0.002,0.011,-0.052000000000000005
1670356551.879999,-9.611,-0.169,4.033,-0.6367,-0.3967,0.3356,0.009000000000000001,0.011,-0.055
1670356551.919999,-9.626,-0.168,4.024,-0.6404000000000001,-0.3965,0.338,0.014,0.01,-0.046
1670356551.959999,-9.615,-0.182,4.065,-0.6391,-0.3962,0.335,0.011,0.011,-0.054
1670356551.999999,-9.632,-0.195,4.0760000000000005,-0.6508,-0.401,0.3457,0.0,0.018000000000000002,-0.049
1670356552.039999,-9.584,-0.196,4.087,-0.6417,-0.39680000000000004,0.33630000000000004,-0.005,0.015,-0.04
1670356552.079999,-9.605,-0.109,4.057,-0.6407,-0.3955,0.3366,0.012,0.009000000000000001,-0.041
1670356552.119999,-9.637,-0.199,4.048,-0.6393,-0.3965,0.33690000000000003,0.015,0.027,-0.055
1670356552.159999,-9.573,-0.138,4.014,-0.6375000000000001,-0.3925,0.3371,0.004,0.031,-0.052000000000000005
1670356552.199999,-9.595,-0.182,4.025,-0.6391,-0.39940000000000003,0.33640000000000003,-0.006,0.014,-0.045
1670356552.239999,-9.64,-0.139,4.04,-0.6367,-0.39990000000000003,0.3365,0.006,0.014,-0.053
1670356552.279999,-9.657,-0.14200000000000002,4.047,-0.6388,-0.3955,0.33640000000000003,0.008,0.011,-0.061
1670356552.319999,-9.624,-0.218,4.077,-0.6397,-0.39890000000000003,0.33840000000000003,0.004,0.006,-0.062
1670356552.359999,-9.581,-0.123,4.017,-0.6396000000000001,-0.3982,0.33490000000000003,0.007,0.009000000000000001,-0.051000000000000004
1670356552.399999,-9.601,-0.209,4.003,-0.6377,-0.39680000000000004,0.3382,0.003,0.009000000000000001,-0.053
1670356552.439999,-9.606,-0.14300000000000002,4.07,-0.6404000000000001,-0.39790000000000003,0.3396,-0.003,0.02,-0.047
1670356552.479999,-9.602,-0.14400000000000002,4.069,-0.6408,-0.3976,0.3366,0.003,0.012,-0.042
1670356552.519999,-9.572000000000001,-0.14,4.072,-0.6381,-0.39940000000000003,0.3385,0.014,0.011,-0.047
1670356552.559999,-9.622,-0.159,4.072,-0.6391,-0.3957,0.3366,0.013000000000000001,0.01,-0.055
1670356552.599998,-9.612,-0.196,4.05,-0.639,-0.39630000000000004,0.33680000000000004,0.0,0.01,-0.058
1670356552.639998,-9.582,-0.17300000000000001,4.033,-0.6396000000000001,-0.3961,0.3382,-0.007,0.014,-0.041
1670356552.679998,-9.608,-0.164,4.075,-0.6404000000000001,-0.39380000000000004,0.3372,-0.006,0.018000000000000002,-0.053
1670356552.719998,-9.624,-0.156,4.053,-0.639,-0.3975,0.3352,0.001,0.019,-0.054
1670356552.759998,-9.627,-0.192,4.055,-0.6385000000000001,-0.3941,0.339,0.008,0.014,-0.054
1670356552.799998,-9.587,-0.184,4.074,-0.6396000000000001,-0.3976,0.33690000000000003,0.005,0.014,-0.059000000000000004
1670356552.839998,-9.6,-0.17,4.097,-0.6412,-0.39690000000000003,0.3357,0.007,0.016,-0.054
1670356552.879998,-9.572000000000001,-0.178,4.0600000000000005,-0.6366,-0.3936,0.3391,0.006,0.011,-0.052000000000000005
1670356552.919998,-9.627,-0.17200000000000001,4.087,-0.6398,-0.39490000000000003,0.3402,0.009000000000000001,0.014,-0.05
1670356552.959998,-9.574,-0.168,4.053,-0.6388,-0.3965,0.33690000000000003,0.004,0.014,-0.056
1670356552.999998,-9.557,-0.177,4.087,-0.6383,-0.3936,0.3352,-0.003,0.018000000000000002,-0.056
1670356553.039998,-9.611,-0.149,4.079,-0.6418,-0.3921,0.3377,0.001,0.026000000000000002,-0.046
1670356553.079998,-9.651,-0.213,4.045,-0.6388,-0.396,0.3341,0.003,0.032,-0.055
1670356553.119998,-9.526,-0.15,4.067,-0.6394000000000001,-0.3951,0.3398,0.001,0.03,-0.055
1670356553.159998,-9.557,-0.197,4.0120000000000005,-0.6435000000000001,-0.3962,0.3413,0.0,0.018000000000000002,-0.051000000000000004
1670356553.199998,-9.604000000000001,-0.178,4.072,-0.6381,-0.3972,0.3355,0.0,0.009000000000000001,-0.056
1670356553.239998,-9.607,-0.178,4.111,-0.6394000000000001,-0.3966,0.3403,0.007,0.01,-0.054
1670356553.279998,-9.569,-0.247,4.074,-0.6388,-0.39380000000000004,0.3386,0.005,0.008,-0.063
1670356553.319998,-9.531,-0.18,4.126,-0.6408,-0.3941,0.3356,-0.005,0.009000000000000001,-0.049
1670356553.359998,-9.619,-0.243,4.071,-0.6432,-0.39330000000000004,0.325,0.002,0.015,-0.046
1670356553.399998,-9.575000000000001,-0.167,4.0760000000000005,-0.6393,-0.3942,0.3281,0.004,0.023,-0.051000000000000004
1670356553.439998,-9.575000000000001,-0.167,4.078,-0.6393,-0.3942,0.31620000000000004,0.003,0.019,-0.041
1670356553.479998,-9.547,-0.178,4.078,-0.6391,-0.3955,0.31620000000000004,0.012,0.019,-0.045
1670356553.519998,-9.607,-0.156,4.111,-0.6416000000000001,-0.3961,0.33790000000000003,0.019,0.008,-0.057
1670356553.559998,-9.597,-0.17300000000000001,4.088,-0.6428,-0.3947,0.3522,0.01,0.009000000000000001,-0.051000000000000004
1670356553.599998,-9.588000000000001,-0.23700000000000002,4.094,-0.6456000000000001,-0.3982,0.36310000000000003,-0.001,0.017,-0.044
1670356553.639997,-9.59,-0.167,4.0360000000000005,-0.6397,-0.3975,0.338,-0.003,0.017,-0.05
1670356553.679997,-9.587,-0.187,4.085,-0.6405000000000001,-0.39640000000000003,0.34090000000000004,0.001,0.016,-0.054
1670356553.719997,-9.606,-0.179,4.097,-0.6367,-0.395,0.3372,0.018000000000000002,0.028,-0.051000000000000004
1670356553.759997,-9.607,-0.167,4.128,-0.6418,-0.3967,0.33690000000000003,0.018000000000000002,0.022,-0.058
1670356553.799997,-9.549,-0.199,4.063,-0.6379,-0.39790000000000003,0.3377,0.005,0.01,-0.048
1670356553.839997,-9.587,-0.252,4.08,-0.6404000000000001,-0.3925,0.3372,-0.004,0.019,-0.043000000000000003
1670356553.879997,-9.59,-0.15,4.0520000000000005,-0.639,-0.3955,0.3373,0.005,0.02,-0.048
1670356553.919997,-9.627,-0.146,4.123,-0.6519,-0.3997,0.34750000000000003,0.009000000000000001,0.014,-0.062
1670356553.959997,-9.58,-0.19,4.085,-0.6383,-0.3931,0.33630000000000004,0.016,0.013000000000000001,-0.055
1670356553.999997,-9.559000000000001,-0.228,4.099,-0.6438,-0.39790000000000003,0.33790000000000003,-0.005,0.01,-0.051000000000000004
1670356554.039997,-9.652000000000001,-0.167,4.117,-0.6382,-0.394,0.3386,-0.003,0.018000000000000002,-0.05
1670356554.079997,-9.676,-0.138,4.106,-0.6406000000000001,-0.39390000000000003,0.33790000000000003,0.004,0.027,-0.05
1670356554.119997,-9.592,-0.181,4.053,-0.6412,-0.39490000000000003,0.3375,0.002,0.029,-0.054
1670356554.159997,-9.533,-0.186,4.055,-0.6388,-0.39440000000000003,0.33740000000000003,0.001,0.017,-0.054
1670356554.199997,-9.576,-0.155,4.104,-0.6425000000000001,-0.3975,0.3367,0.006,0.008,-0.05
1670356554.239997,-9.613,-0.183,4.105,-0.6383,-0.3975,0.3372,0.006,0.018000000000000002,-0.057
1670356554.279997,-9.604000000000001,-0.19,4.095,-0.6366,-0.39430000000000004,0.3362,0.007,0.012,-0.053
1670356554.319997,-9.606,-0.20800000000000002,4.102,-0.6405000000000001,-0.39490000000000003,0.3387,0.006,0.013000000000000001,-0.052000000000000005
1670356554.359997,-9.605,-0.15,4.134,-0.643,-0.3972,0.3371,0.008,0.015,-0.05
1670356554.399997,-9.620000000000001,-0.201,4.058,-0.6393,-0.39440000000000003,0.3375,0.003,0.017,-0.052000000000000005
1670356554.439997,-9.584,-0.171,4.093,-0.6397,-0.3946,0.3383,0.003,0.019,-0.044
1670356554.479997,-9.541,-0.159,4.086,-0.6376000000000001,-0.3956,0.3376,0.009000000000000001,0.015,-0.049
1670356554.519997,-9.582,-0.14100000000000001,4.063,-0.6396000000000001,-0.3957,0.3408,0.017,0.012,-0.058
1670356554.5599968,-9.612,-0.19,4.103,-0.6392,-0.394,0.3397,0.014,0.018000000000000002,-0.065
1670356554.599997,-9.554,-0.201,4.08,-0.6396000000000001,-0.3986,0.3361,0.0,0.012,-0.045
1670356554.639997,-9.603,-0.184,4.057,-0.6386000000000001,-0.3961,0.3385,0.003,0.014,-0.048
1670356554.679996,-9.598,-0.159,4.14,-0.6408,-0.394,0.33990000000000004,0.014,0.014,-0.049
1670356554.719996,-9.567,-0.196,4.123,-0.6406000000000001,-0.3946,0.3408,0.03,0.026000000000000002,-0.057
1670356554.759996,-9.56,-0.245,4.12,-0.6386000000000001,-0.39440000000000003,0.33580000000000004,0.028,0.024,-0.051000000000000004
1670356554.799996,-9.571,-0.20400000000000001,4.088,-0.64,-0.3955,0.3422,0.011,0.014,-0.048
1670356554.839996,-9.576,-0.162,4.064,-0.6411,-0.39490000000000003,0.33890000000000003,0.007,0.01,-0.045
1670356554.879996,-9.59,-0.162,4.078,-0.6408,-0.39840000000000003,0.3406,0.017,0.008,-0.05
1670356554.919996,-9.593,-0.168,4.097,-0.6414000000000001,-0.3952,0.3397,0.017,0.011,-0.058
1670356554.959996,-9.515,-0.20800000000000002,4.083,-0.6413,-0.3955,0.3386,0.007,0.009000000000000001,-0.054
1670356554.999996,-9.566,-0.137,4.141,-0.6382,-0.39380000000000004,0.3383,0.011,0.009000000000000001,-0.039
1670356555.039996,-9.619,-0.201,4.124,-0.6404000000000001,-0.39540000000000003,0.3375,0.012,0.026000000000000002,-0.054
1670356555.079996,-9.546,-0.136,4.109,-0.6399,-0.39740000000000003,0.3412,0.008,0.025,-0.061
1670356555.119996,-9.537,-0.20700000000000002,4.091,-0.6424000000000001,-0.396,0.33580000000000004,0.0,0.019,-0.051000000000000004
1670356555.159996,-9.578,-0.178,4.097,-0.6451,-0.39530000000000004,0.3396,-0.004,0.007,-0.044
1670356555.199996,-9.586,-0.168,4.12,-0.6427,-0.395,0.33990000000000004,-0.001,0.015,-0.056
1670356555.239996,-9.537,-0.213,4.17,-0.6411,-0.39380000000000004,0.337,0.005,0.017,-0.053
1670356555.279996,-9.522,-0.196,4.107,-0.641,-0.3945,0.3402,0.003,0.019,-0.046
1670356555.319996,-9.585,-0.248,4.093,-0.6399,-0.396,0.3398,0.002,0.021,-0.042
1670356555.359996,-9.599,-0.156,4.1370000000000005,-0.638,-0.3966,0.33680000000000004,0.003,0.026000000000000002,-0.047
1670356555.399996,-9.585,-0.148,4.119,-0.6442,-0.3965,0.3412,0.017,0.028,-0.043000000000000003
1670356555.439996,-9.595,-0.164,4.151,-0.64,-0.3952,0.3397,0.024,0.019,-0.043000000000000003
1670356555.479996,-9.648,-0.151,4.175,-0.6427,-0.3962,0.33790000000000003,0.03,0.019,-0.051000000000000004
1670356555.519996,-9.672,-0.177,4.091,-0.6394000000000001,-0.3961,0.3381,0.023,0.029,-0.049
1670356555.559996,-9.675,-0.186,4.047,-0.6396000000000001,-0.39690000000000003,0.3386,0.004,0.037,-0.053
1670356555.5999959,-9.661,-0.215,4.023,-0.6421,-0.3955,0.3497,0.002,0.038,-0.07100000000000001
1670356555.639996,-9.652000000000001,-0.233,3.9410000000000003,-0.6416000000000001,-0.39690000000000003,0.3259,-0.018000000000000002,0.031,-0.068
1670356555.679996,-9.652000000000001,-0.244,3.9610000000000003,-0.6416000000000001,-0.3971,0.3292,-0.028,0.022,-0.043000000000000003
1670356555.719995,-9.569,-0.244,3.9610000000000003,-0.6399,-0.3971,0.3292,-0.034,0.015,-0.03
1670356555.759995,-9.55,-0.227,3.987,-0.6406000000000001,-0.39630000000000004,0.34640000000000004,-0.024,-0.002,-0.033
1670356555.799995,-9.611,-0.28400000000000003,4.071,-0.6383,-0.3982,0.339,-0.023,-0.016,-0.027
1670356555.839995,-9.559000000000001,-0.168,4.163,-0.6395000000000001,-0.39530000000000004,0.3289,0.0,-0.021,-0.043000000000000003
1670356555.879995,-9.522,-0.329,4.232,-0.6394000000000001,-0.3945,0.3416,-0.001,-0.007,-0.055
1670356555.919995,-9.783,-0.231,4.173,-0.6447,-0.39630000000000004,0.3392,-0.002,0.029,-0.01
1670356555.959995,-9.613,-0.162,4.1,-0.6394000000000001,-0.39390000000000003,0.3408,0.005,0.032,0.019
1670356555.999995,-9.42,-0.129,4.088,-0.6463,-0.39990000000000003,0.35000000000000003,0.024,0.005,0.007
1670356556.039995,-9.515,0.01,4.015,-0.6423,-0.39930000000000004,0.3383,0.04,-0.01,-0.006
1670356556.079995,-9.597,-0.061,4.0440000000000005,-0.6566000000000001,-0.4021,0.3408,0.012,-0.019,-0.018000000000000002
1670356556.119995,-9.565,-0.129,4.0760000000000005,-0.6421,-0.3956,0.337,-0.054,-0.014,-0.038
1670356556.159995,-9.673,-0.154,4.183,-0.6418,-0.4012,0.34140000000000004,-0.105,-0.007,-0.053
1670356556.199995,-9.661,-0.242,4.135,-0.6405000000000001,-0.40030000000000004,0.3487,-0.151,0.007,-0.028
1670356556.239995,-9.718,-0.17500000000000002,4.156,-0.643,-0.3985,0.34290000000000004,-0.162,0.033,-0.034
1670356556.279995,-9.566,-0.25,4.1450000000000005,-0.6408,-0.3936,0.3375,-0.154,0.022,-0.01
1670356556.319995,-9.576,-0.20700000000000002,4.1370000000000005,-0.6394000000000001,-0.3924,0.3366,-0.14100000000000001,0.006,-0.004
1670356556.359995,-9.589,-0.301,4.114,-0.639,-0.3915,0.33440000000000003,-0.135,-0.01,-0.003
1670356556.3999949,-9.528,-0.258,4.168,-0.6412,-0.39130000000000004,0.337,-0.134,-0.017,0.013000000000000001
1670356556.439995,-9.466000000000001,-0.184,4.172,-0.6382,-0.3916,0.33680000000000004,-0.111,-0.023,0.041
1670356556.479995,-9.503,-0.126,4.211,-0.6388,-0.3932,0.33630000000000004,-0.091,-0.029,0.055
1670356556.519995,-9.458,-0.114,4.214,-0.6406000000000001,-0.39180000000000004,0.3322,-0.08,-0.023,0.047
1670356556.559995,-9.362,-0.057,4.2620000000000005,-0.6363,-0.3921,0.3341,-0.085,-0.028,0.041
1670356556.599995,-9.432,-0.046,4.226,-0.6361,-0.391,0.33540000000000003,-0.097,-0.021,0.013000000000000001
1670356556.6399949,-9.425,-0.04,4.265,-0.641,-0.39180000000000004,0.33630000000000004,-0.124,-0.023,0.01
1670356556.679995,-9.349,-0.047,4.311,-0.6369,-0.3915,0.3345,-0.129,-0.041,0.021
1670356556.719995,-9.428,0.041,4.39,-0.638,-0.3901,0.3372,-0.121,-0.031,0.02
1670356556.759995,-9.611,0.083,4.386,-0.64,-0.38970000000000005,0.3361,-0.076,0.001,-0.001
1670356556.799995,-9.544,0.027,4.329,-0.6393,-0.39030000000000004,0.3357,-0.07100000000000001,0.02,-0.001
1670356556.839994,-9.386000000000001,0.026000000000000002,4.28,-0.6352,-0.3884,0.3402,-0.053,0.017,-0.004
1670356556.879994,-9.508000000000001,0.088,4.311,-0.6378,-0.39130000000000004,0.3361,-0.031,0.014,-0.025
1670356556.919994,-9.451,-0.022,4.263,-0.6353,-0.39,0.3367,0.001,0.019,-0.061
1670356556.959994,-9.503,-0.145,4.309,-0.6364000000000001,-0.3881,0.3366,0.001,0.018000000000000002,-0.06
1670356556.999994,-9.542,-0.145,4.3260000000000005,-0.6374000000000001,-0.39080000000000004,0.3351,-0.033,0.009000000000000001,-0.022
1670356557.039994,-9.624,-0.114,4.378,-0.6382,-0.3894,0.3325,-0.05,0.008,0.01
1670356557.079994,-9.664,-0.247,4.34,-0.6367,-0.3906,0.3367,-0.099,0.036000000000000004,0.014
1670356557.119994,-9.564,-0.262,4.236,-0.6377,-0.3894,0.3336,-0.161,0.049,0.036000000000000004
1670356557.159994,-9.4,-0.213,4.237,-0.6389,-0.3891,0.33240000000000003,-0.229,0.021,0.04
1670356557.1999938,-9.411,-0.11900000000000001,4.218,-0.6356,-0.3865,0.3327,-0.253,0.004,0.032
1670356557.239994,-9.482,-0.059000000000000004,4.221,-0.6361,-0.38670000000000004,0.33080000000000004,-0.243,0.001,0.023
1670356557.279994,-9.504,-0.11900000000000001,4.257,-0.6369,-0.3849,0.33030000000000004,-0.219,0.0,0.046
1670356557.319994,-9.515,-0.019,4.301,-0.6331,-0.3839,0.3302,-0.186,0.009000000000000001,0.064
1670356557.359994,-9.454,0.032,4.23,-0.6332,-0.3846,0.3291,-0.128,0.005,0.035
1670356557.399994,-9.421,-0.034,4.34,-0.6343,-0.3829,0.3279,-0.093,0.0,0.01
1670356557.4399939,-9.362,0.013000000000000001,4.391,-0.633,-0.38280000000000003,0.3306,-0.059000000000000004,-0.02,-0.001
1670356557.479994,-9.458,-0.015,4.414,-0.6327,-0.38130000000000003,0.328,-0.037,-0.028,-0.007
1670356557.519994,-9.477,-0.037,4.491,-0.6341,-0.38020000000000004,0.32780000000000004,-0.041,-0.006,-0.008
1670356557.559994,-9.407,0.053,4.464,-0.6326,-0.38280000000000003,0.3286,-0.004,-0.015,-0.023
1670356557.599994,-9.411,-0.016,4.502,-0.6326,-0.3864,0.33130000000000004,0.02,-0.008,-0.043000000000000003
1670356557.639994,-9.498,0.03,4.353,-0.6349,-0.382,0.3322,0.042,0.024,-0.043000000000000003
1670356557.6799939,-9.487,-0.006,4.338,-0.6374000000000001,-0.385,0.3286,0.059000000000000004,0.058,-0.036000000000000004
1670356557.719994,-9.395,0.026000000000000002,4.288,-0.6319,-0.38470000000000004,0.3292,0.049,0.069,-0.018000000000000002
1670356557.759994,-9.444,0.047,4.328,-0.633,-0.3855,0.3289,0.053,0.042,-0.037
1670356557.799994,-9.457,0.028,4.3260000000000005,-0.6311,-0.38680000000000003,0.3285,0.04,0.013000000000000001,-0.047
1670356557.839994,-9.459,-0.026000000000000002,4.399,-0.632,-0.38620000000000004,0.33140000000000003,0.003,0.009000000000000001,-0.045
1670356557.879993,-9.492,-0.007,4.382,-0.6349,-0.38480000000000003,0.3415,-0.004,0.008,-0.057
1670356557.919993,-9.399000000000001,0.07,4.38,-0.6349,-0.3869,0.3342,-0.015,0.007,-0.045
1670356557.959993,-9.399000000000001,0.07,4.323,-0.6322,-0.38830000000000003,0.3491,-0.011,0.024,-0.059000000000000004
1670356557.9999928,-9.495000000000001,-0.05,4.323,-0.647,-0.38830000000000003,0.3491,-0.003,0.037,-0.053
1670356558.039993,-9.439,0.063,4.282,-0.6364000000000001,-0.38520000000000004,0.3327,-0.002,0.036000000000000004,-0.042
1670356558.079993,-9.43,0.066,4.293,-0.6358,-0.38430000000000003,0.33080000000000004,0.016,0.028,-0.058
1670356558.119993,-9.469,0.053,4.336,-0.633,-0.38580000000000003,0.33480000000000004,0.024,0.007,-0.066
1670356558.159993,-9.46,0.001,4.333,-0.6408,-0.39080000000000004,0.3493,0.01,-0.008,-0.083
1670356558.199993,-9.369,-0.04,4.363,-0.6347,-0.38470000000000004,0.3294,0.012,0.009000000000000001,-0.09
1670356558.2399929,-9.496,-0.007,4.4510000000000005,-0.638,-0.38580000000000003,0.3345,-0.041,0.034,-0.096
1670356558.279993,-9.543000000000001,-0.116,4.415,-0.6344000000000001,-0.38320000000000004,0.3346,-0.046,0.052000000000000005,-0.049
1670356558.319993,-9.375,0.066,4.43,-0.632,-0.38270000000000004,0.3282,0.0,0.046,-0.054
1670356558.359993,-9.445,0.13,4.358,-0.6322,-0.3825,0.3311,0.068,0.041,-0.09
1670356558.399993,-9.512,0.026000000000000002,4.2860000000000005,-0.6328,-0.382,0.3266,0.109,0.058,-0.10200000000000001
1670356558.439993,-9.508000000000001,-0.031,4.333,-0.6335000000000001,-0.387,0.3289,0.1,0.065,-0.085
1670356558.4799929,-9.489,-0.074,4.317,-0.6314000000000001,-0.3829,0.3286,0.096,0.04,-0.081
1670356558.519993,-9.421,-0.022,4.3180000000000005,-0.6325000000000001,-0.3859,0.32880000000000004,0.111,0.008,-0.08600000000000001
1670356558.559993,-9.516,0.058,4.293,-0.6335000000000001,-0.3864,0.3322,0.153,0.003,-0.10300000000000001
1670356558.599993,-9.596,0.013000000000000001,4.238,-0.635,-0.3884,0.3292,0.146,0.016,-0.106
1670356558.639993,-9.493,-0.01,4.229,-0.6313000000000001,-0.3859,0.331,0.133,0.021,-0.085
1670356558.679993,-9.434000000000001,-0.032,4.2090000000000005,-0.6371,-0.3881,0.33380000000000004,0.132,0.014,-0.091
1670356558.7199929,-9.524000000000001,0.02,4.223,-0.6334000000000001,-0.3891,0.33380000000000004,0.14300000000000002,0.018000000000000002,-0.113
1670356558.759993,-9.502,-0.036000000000000004,4.306,-0.6346,-0.391,0.3322,0.115,0.015,-0.11
1670356558.799993,-9.523,-0.095,4.296,-0.6355000000000001,-0.38880000000000003,0.33440000000000003,0.07,0.0,-0.10300000000000001
1670356558.839993,-9.424,-0.265,4.3020000000000005,-0.638,-0.3922,0.3327,0.024,-0.003,-0.105
1670356558.879993,-9.465,0.137,4.412,-0.6337,-0.38820000000000005,0.335,0.046,0.001,-0.081
1670356558.919992,-9.615,-0.213,4.244,-0.6384000000000001,-0.3911,0.3341,0.043000000000000003,0.017,-0.08600000000000001
1670356558.959992,-9.5,0.07,4.315,-0.6371,-0.39080000000000004,0.33130000000000004,0.068,0.018000000000000002,-0.091
1670356558.999992,-9.442,-0.044,4.364,-0.6363,-0.3901,0.3391,0.078,-0.002,-0.077
1670356559.0399919,-9.436,-0.061,4.406,-0.6356,-0.3931,0.33740000000000003,0.053,-0.01,-0.091
1670356559.079992,-9.406,-0.132,4.335,-0.6398,-0.3912,0.3362,0.014,0.0,-0.07100000000000001
1670356559.119992,-9.424,-0.049,4.337,-0.6366,-0.3905,0.3371,-0.01,0.018000000000000002,-0.057
1670356559.159992,-9.502,0.052000000000000005,4.34,-0.6371,-0.3902,0.33440000000000003,0.014,0.031,-0.09
1670356559.199992,-9.479000000000001,0.095,4.328,-0.6394000000000001,-0.3937,0.3416,0.082,0.051000000000000004,-0.111
1670356559.239992,-9.512,-0.031,4.2620000000000005,-0.6379,-0.3921,0.3397,0.094,0.045,-0.091
1670356559.2799919,-9.343,-0.137,4.23,-0.6403,-0.393,0.3376,0.075,0.021,-0.08700000000000001
1670356559.319992,-9.399000000000001,0.125,4.317,-0.6375000000000001,-0.3924,0.3357,0.10200000000000001,0.004,-0.091
1670356559.359992,-9.451,-0.013000000000000001,4.338,-0.6377,-0.3936,0.339,0.132,0.012,-0.109
1670356559.399992,-9.581,0.08700000000000001,4.383,-0.6375000000000001,-0.3935,0.338,0.152,0.027,-0.10200000000000001
1670356559.439992,-9.481,-0.016,4.392,-0.6388,-0.3961,0.3366,0.139,0.026000000000000002,-0.095
1670356559.479992,-9.506,0.028,4.372,-0.6385000000000001,-0.3927,0.3421,0.11800000000000001,0.037,-0.098
1670356559.5199919,-9.524000000000001,0.168,4.37,-0.6383,-0.39540000000000003,0.33890000000000003,0.116,0.027,-0.091
1670356559.559992,-9.348,0.161,4.2540000000000004,-0.6401,-0.3946,0.3391,0.136,0.031,-0.106
1670356559.599992,-9.51,-0.181,4.319,-0.6383,-0.3955,0.3413,0.096,0.042,-0.14300000000000002
1670356559.639992,-9.462,0.023,4.442,-0.6415000000000001,-0.39490000000000003,0.3405,0.082,0.021,-0.056
1670356559.679992,-9.393,0.117,4.417,-0.6399,-0.3982,0.3422,0.125,0.014,-0.037
1670356559.719992,-9.414,0.093,4.312,-0.6383,-0.39940000000000003,0.3407,0.186,0.026000000000000002,-0.094
1670356559.759992,-9.592,-0.089,4.17,-0.6402,-0.399,0.3411,0.156,0.041,-0.096
1670356559.799992,-9.579,0.07100000000000001,4.216,-0.6397,-0.4007,0.34290000000000004,0.077,0.053,-0.065
1670356559.839992,-9.614,-0.007,4.141,-0.6385000000000001,-0.40130000000000005,0.3421,0.047,0.08,-0.10300000000000001
1670356559.879992,-9.505,0.014,4.19,-0.64,-0.40080000000000005,0.34090000000000004,0.038,0.058,-0.117
1670356559.919992,-9.39,0.022,4.4110000000000005,-0.6404000000000001,-0.4016,0.3386,0.042,0.022,-0.148
1670356559.959991,-9.562,0.01,4.347,-0.6396000000000001,-0.4001,0.33990000000000004,0.054,0.028,-0.187
1670356559.999991,-9.567,-0.134,4.205,-0.6386000000000001,-0.3972,0.341,0.055,0.054,-0.20800000000000002
1670356560.039991,-9.58,-0.117,4.123,-0.6384000000000001,-0.4001,0.34090000000000004,0.046,0.074,-0.181
1670356560.0799909,-9.654,-0.212,4.041,-0.6402,-0.3975,0.33890000000000003,0.044,0.08,-0.151
1670356560.119991,-9.596,-0.28200000000000003,3.9530000000000003,-0.653,-0.4037,0.3653,0.009000000000000001,0.065,-0.091
1670356560.159991,-9.700000000000001,-0.315,3.875,-0.6448,-0.3992,0.3191,-0.032,0.062,-0.06
1670356560.199991,-9.700000000000001,-0.359,4.038,-0.6448,-0.3952,0.33280000000000004,-0.085,0.023,-0.046
1670356560.239991,-9.427,-0.359,4.104,-0.6445000000000001,-0.3952,0.33280000000000004,-0.12,-0.032,-0.028
1670356560.279991,-9.604000000000001,-0.554,4.104,-0.6446000000000001,-0.39640000000000003,0.3401,-0.145,0.0,-0.009000000000000001
1670356560.3199909,-9.827,0.002,4.13,-0.6414000000000001,-0.3925,0.3383,-0.045,0.029,-0.031
1670356560.359991,-9.636000000000001,0.095,4.163,-0.6377,-0.3965,0.3534,0.09,0.004,-0.085
1670356560.399991,-9.43,-0.138,4.136,-0.6402,-0.395,0.3448,0.088,-0.033,-0.101
1670356560.439991,-9.478,-0.137,4.134,-0.6397,-0.3937,0.3366,0.048,-0.06,-0.051000000000000004
1670356560.479991,-9.569,-0.424,4.088,-0.6419,-0.3946,0.33990000000000004,-0.028,-0.032,-0.009000000000000001
1670356560.519991,-9.633000000000001,-0.15,4.0600000000000005,-0.6405000000000001,-0.39480000000000004,0.3387,-0.076,0.015,0.014
1670356560.559991,-9.621,0.006,4.133,-0.6421,-0.39740000000000003,0.3418,-0.016,0.024,-0.01
1670356560.599991,-9.496,-0.005,4.228,-0.6402,-0.3927,0.33740000000000003,0.032,0.018000000000000002,-0.067
1670356560.639991,-9.587,-0.10200000000000001,4.239,-0.6385000000000001,-0.3942,0.341,0.049,-0.007,-0.063
1670356560.679991,-9.556000000000001,0.031,4.279,-0.6409,-0.39280000000000004,0.3393,0.062,-0.026000000000000002,-0.084
1670356560.719991,-9.34,-0.088,4.311,-0.6418,-0.39540000000000003,0.33790000000000003,0.075,-0.05,-0.097
1670356560.759991,-9.471,-0.228,4.265,-0.6416000000000001,-0.3961,0.3407,0.002,-0.044,-0.075
1670356560.799991,-9.466000000000001,-0.209,4.2780000000000005,-0.6399,-0.3951,0.34240000000000004,-0.041,-0.02,-0.032
1670356560.839991,-9.482,-0.085,4.358,-0.6432,-0.3975,0.3452,-0.032,0.008,-0.025
1670356560.879991,-9.488,-0.016,4.397,-0.6438,-0.39480000000000004,0.3411,0.007,0.021,-0.057
1670356560.919991,-9.418000000000001,-0.113,4.4430000000000005,-0.6424000000000001,-0.3946,0.34390000000000004,0.02,0.007,-0.076
1670356560.959991,-9.467,-0.22,4.333,-0.6515000000000001,-0.401,0.35300000000000004,0.002,-0.007,-0.052000000000000005
1670356560.99999,-9.414,-0.241,4.481,-0.643,-0.395,0.3438,-0.044,-0.016,-0.008
1670356561.03999,-9.445,-0.162,4.4270000000000005,-0.6435000000000001,-0.3966,0.343,-0.043000000000000003,-0.008,0.001
1670356561.07999,-9.532,-0.007,4.349,-0.6433,-0.3961,0.3441,-0.007,0.03,-0.028
1670356561.1199899,-9.589,0.013000000000000001,4.264,-0.6438,-0.3956,0.3413,0.019,0.054,-0.048
1670356561.15999,-9.512,-0.08700000000000001,4.207,-0.6428,-0.3932,0.3452,0.017,0.062,-0.061
1670356561.19999,-9.415000000000001,-0.107,4.226,-0.6483,-0.398,0.34240000000000004,0.002,0.055,-0.06
1670356561.23999,-9.443,-0.116,4.219,-0.6448,-0.39590000000000003,0.34040000000000004,-0.025,0.033,-0.065
1670356561.27999,-9.558,-0.123,4.272,-0.6431,-0.3975,0.3426,-0.016,0.022,-0.051000000000000004
1670356561.31999,-9.494,-0.203,4.288,-0.643,-0.3942,0.33990000000000004,-0.025,0.017,-0.056
1670356561.35999,-9.467,-0.07100000000000001,4.357,-0.6414000000000001,-0.3934,0.339,-0.007,0.021,-0.061
1670356561.39999,-9.44,-0.137,4.3260000000000005,-0.6411,-0.3932,0.34140000000000004,0.019,0.01,-0.067
1670356561.43999,-9.478,-0.217,4.418,-0.6402,-0.395,0.34440000000000004,0.012,0.0,-0.049
1670356561.47999,-9.534,-0.115,4.3500000000000005,-0.6431,-0.3946,0.3427,0.022,0.005,-0.036000000000000004
1670356561.51999,-9.487,-0.211,4.282,-0.6407,-0.39530000000000004,0.3403,0.02,0.011,-0.034
1670356561.55999,-9.509,-0.012,4.309,-0.6441,-0.3942,0.3388,0.032,0.02,-0.043000000000000003
1670356561.59999,-9.516,-0.158,4.252,-0.6433,-0.3947,0.3412,0.023,0.04,-0.047
1670356561.63999,-9.446,-0.101,4.206,-0.6425000000000001,-0.395,0.34140000000000004,-0.006,0.047,-0.049
1670356561.67999,-9.524000000000001,-0.017,4.188,-0.6435000000000001,-0.3929,0.3402,-0.017,0.042,-0.045
1670356561.71999,-9.642,0.025,4.197,-0.6426000000000001,-0.39680000000000004,0.3393,0.036000000000000004,0.049,-0.061
1670356561.75999,-9.535,-0.002,4.17,-0.6422,-0.3955,0.3405,0.079,0.025,-0.085
1670356561.79999,-9.428,-0.123,4.203,-0.6377,-0.3957,0.341,0.07200000000000001,0.0,-0.081
1670356561.83999,-9.463000000000001,-0.159,4.299,-0.6438,-0.39690000000000003,0.3402,0.046,-0.027,-0.069
1670356561.87999,-9.493,-0.151,4.36,-0.6428,-0.395,0.3432,0.026000000000000002,-0.033,-0.07100000000000001
1670356561.91999,-9.509,-0.123,4.357,-0.6421,-0.3942,0.3422,0.004,-0.006,-0.061
1670356561.95999,-9.455,-0.099,4.3420000000000005,-0.6422,-0.3955,0.34190000000000004,0.011,0.0,-0.066
1670356561.99999,-9.452,-0.11,4.377,-0.6453,-0.39680000000000004,0.3438,0.006,0.003,-0.07
1670356562.039989,-9.418000000000001,-0.126,4.347,-0.641,-0.39630000000000004,0.34600000000000003,-0.007,0.009000000000000001,-0.057
1670356562.079989,-9.506,-0.054,4.339,-0.643,-0.394,0.3422,0.0,0.014,-0.046
1670356562.119989,-9.569,-0.034,4.304,-0.6455000000000001,-0.3985,0.3416,0.02,0.021,-0.061
1670356562.1599889,-9.461,-0.09,4.251,-0.643,-0.3956,0.34550000000000003,0.026000000000000002,0.032,-0.07
1670356562.199989,-9.493,-0.123,4.274,-0.6475000000000001,-0.39740000000000003,0.3473,0.008,0.024,-0.065
1670356562.239989,-9.464,-0.12,4.297,-0.6457,-0.39830000000000004,0.34340000000000004,-0.005,0.01,-0.053
1670356562.279989,-9.475,-0.101,4.371,-0.6423,-0.39690000000000003,0.34290000000000004,-0.008,0.0,-0.058
1670356562.319989,-9.473,-0.08700000000000001,4.347,-0.6445000000000001,-0.39680000000000004,0.3425,0.012,-0.004,-0.06
1670356562.359989,-9.436,-0.146,4.3500000000000005,-0.6427,-0.39440000000000003,0.3446,0.015,-0.007,-0.066
1670356562.399989,-9.545,-0.171,4.337,-0.6436000000000001,-0.3942,0.3372,0.018000000000000002,0.011,-0.058
1670356562.439989,-9.473,-0.146,4.352,-0.646,-0.396,0.3175,0.015,0.015,-0.058
1670356562.479989,-9.473,-0.146,4.331,-0.646,-0.396,0.332,-0.002,0.016,-0.047
1670356562.519989,-9.406,-0.124,4.331,-0.6437,-0.39630000000000004,0.332,-0.001,0.009000000000000001,-0.05
1670356562.559989,-9.474,-0.077,4.314,-0.6437,-0.39690000000000003,0.3471,0.018000000000000002,0.009000000000000001,-0.062
1670356562.599989,-9.512,-0.088,4.365,-0.6465000000000001,-0.3977,0.33080000000000004,0.019,0.015,-0.062
1670356562.639989,-9.459,-0.176,4.352,-0.6461,-0.39740000000000003,0.3477,0.001,0.01,-0.043000000000000003
1670356562.679989,-9.44,-0.11900000000000001,4.352,-0.644,-0.39790000000000003,0.3435,0.007,0.01,-0.045
1670356562.719989,-9.465,-0.08,4.352,-0.6449,-0.3947,0.3452,0.01,0.011,-0.053
1670356562.759989,-9.485,-0.122,4.317,-0.6443,-0.4,0.3436,0.009000000000000001,0.019,-0.05
1670356562.799989,-9.467,-0.107,4.362,-0.6446000000000001,-0.3971,0.3438,0.008,0.021,-0.045
1670356562.839989,-9.457,-0.095,4.332,-0.6429,-0.39740000000000003,0.3462,0.01,0.014,-0.059000000000000004
1670356562.879989,-9.466000000000001,-0.10400000000000001,4.374,-0.6452,-0.39690000000000003,0.3467,0.014,0.01,-0.057
1670356562.919989,-9.44,-0.128,4.344,-0.6455000000000001,-0.39680000000000004,0.3451,0.005,0.012,-0.055
1670356562.959989,-9.459,-0.164,4.385,-0.6534,-0.3986,0.3482,-0.004,0.01,-0.054
1670356562.999989,-9.444,-0.10400000000000001,4.404,-0.6445000000000001,-0.3977,0.34490000000000004,0.001,0.016,-0.046
1670356563.039989,-9.532,-0.064,4.382,-0.6456000000000001,-0.3992,0.34900000000000003,0.008,0.029,-0.053
1670356563.079988,-9.454,-0.154,4.3340000000000005,-0.6432,-0.3971,0.34650000000000003,0.004,0.029,-0.051000000000000004
1670356563.119988,-9.421,-0.134,4.348,-0.6572,-0.4007,0.35450000000000004,-0.001,0.024,-0.048
1670356563.159988,-9.43,-0.147,4.375,-0.6451,-0.3955,0.34600000000000003,-0.014,0.014,-0.053
1670356563.199988,-9.467,-0.111,4.356,-0.644,-0.397,0.3447,-0.003,0.014,-0.058
1670356563.239988,-9.496,-0.135,4.402,-0.6463,-0.397,0.35000000000000003,0.005,0.007,-0.056
1670356563.279988,-9.435,-0.194,4.388,-0.6454000000000001,-0.39880000000000004,0.3473,-0.002,0.011,-0.062
1670356563.319988,-9.47,-0.08,4.409,-0.6449,-0.39530000000000004,0.3448,0.003,0.003,-0.058
1670356563.359988,-9.472,-0.193,4.349,-0.648,-0.3942,0.34490000000000004,-0.002,0.018000000000000002,-0.057
1670356563.399988,-9.442,-0.14,4.358,-0.6473,-0.3961,0.3432,0.0,0.02,-0.052000000000000005
1670356563.439988,-9.412,-0.12,4.347,-0.6474000000000001,-0.39590000000000003,0.3463,0.006,0.02,-0.049
1670356563.479988,-9.438,-0.125,4.332,-0.644,-0.395,0.34600000000000003,0.011,0.01,-0.052000000000000005
1670356563.519988,-9.478,-0.146,4.357,-0.6452,-0.3957,0.3441,0.008,0.006,-0.056
1670356563.559988,-9.458,-0.17200000000000001,4.367,-0.6438,-0.39680000000000004,0.3482,-0.007,0.002,-0.054
1670356563.599988,-9.441,-0.129,4.393,-0.6455000000000001,-0.3955,0.3443,-0.003,0.001,-0.053
1670356563.639988,-9.436,-0.115,4.398,-0.6469,-0.3941,0.3461,0.003,0.002,-0.063
1670356563.679988,-9.448,-0.153,4.43,-0.6432,-0.3952,0.3441,0.011,0.01,-0.061
1670356563.719988,-9.445,-0.177,4.439,-0.647,-0.39430000000000004,0.3462,0.004,0.006,-0.054
1670356563.759988,-9.441,-0.169,4.42,-0.6455000000000001,-0.3936,0.3438,0.005,0.01,-0.058
1670356563.799988,-9.434000000000001,-0.17200000000000001,4.406,-0.6452,-0.3946,0.3463,-0.003,0.023,-0.058
1670356563.839988,-9.41,-0.179,4.446,-0.6467,-0.39540000000000003,0.34790000000000004,-0.001,0.024,-0.049
1670356563.879988,-9.425,-0.168,4.428,-0.6465000000000001,-0.39490000000000003,0.3468,0.001,0.018000000000000002,-0.047
1670356563.919988,-9.44,-0.152,4.394,-0.6449,-0.3945,0.34400000000000003,0.017,0.018000000000000002,-0.054
1670356563.959988,-9.451,-0.15,4.429,-0.6466000000000001,-0.3942,0.34650000000000003,0.022,0.021,-0.054
1670356563.999988,-9.454,-0.17400000000000002,4.385,-0.6462,-0.395,0.34850000000000003,0.015,0.014,-0.056
1670356564.039988,-9.367,-0.193,4.3790000000000004,-0.6447,-0.39490000000000003,0.34340000000000004,-0.005,0.009000000000000001,-0.047
1670356564.079988,-9.4,-0.064,4.402,-0.6461,-0.39540000000000003,0.34690000000000004,0.005,0.018000000000000002,-0.037
1670356564.119987,-9.463000000000001,-0.211,4.421,-0.6444000000000001,-0.3941,0.34800000000000003,0.007,0.024,-0.043000000000000003
1670356564.159987,-9.393,-0.117,4.3870000000000005,-0.6447,-0.3956,0.3471,0.002,0.027,-0.048
1670356564.199987,-9.4,-0.167,4.375,-0.6467,-0.3947,0.3471,0.0,0.019,-0.046
1670356564.239987,-9.411,-0.147,4.393,-0.6461,-0.39540000000000003,0.3457,0.0,0.013000000000000001,-0.045
1670356564.279987,-9.464,-0.122,4.421,-0.6477,-0.39440000000000003,0.34790000000000004,0.014,0.012,-0.054
1670356564.319987,-9.4,-0.165,4.412,-0.6432,-0.395,0.3486,0.018000000000000002,0.019,-0.057
1670356564.359987,-9.39,-0.15,4.4110000000000005,-0.6472,-0.39630000000000004,0.3491,0.01,0.02,-0.051000000000000004
1670356564.399987,-9.463000000000001,-0.186,4.44,-0.6458,-0.3957,0.3471,0.005,0.019,-0.047
1670356564.439987,-9.436,-0.128,4.407,-0.6435000000000001,-0.39280000000000004,0.3501,0.005,0.025,-0.049
1670356564.479987,-9.409,-0.11900000000000001,4.406,-0.6478,-0.39480000000000004,0.3477,-0.005,0.018000000000000002,-0.047
1670356564.519987,-9.426,-0.096,4.378,-0.6436000000000001,-0.396,0.34400000000000003,0.007,0.01,-0.047
1670356564.559987,-9.447000000000001,-0.137,4.4,-0.6429,-0.39530000000000004,0.34750000000000003,0.016,0.006,-0.057
1670356564.599987,-9.444,-0.193,4.428,-0.6444000000000001,-0.39540000000000003,0.3493,0.011,0.01,-0.053
1670356564.639987,-9.428,-0.131,4.399,-0.6476000000000001,-0.39530000000000004,0.3385,-0.001,0.016,-0.053
1670356564.679987,-9.423,-0.152,4.417,-0.6445000000000001,-0.39630000000000004,0.33080000000000004,-0.004,0.023,-0.054
1670356564.719987,-9.423,-0.152,4.442,-0.6445000000000001,-0.3929,0.3648,-0.007,0.021,-0.059000000000000004
1670356564.759987,-9.431000000000001,-0.152,4.442,-0.6458,-0.3929,0.3648,0.0,0.028,-0.053
1670356564.799987,-9.428,-0.14100000000000001,4.447,-0.6439,-0.3961,0.3567,-0.005,0.022,-0.056
1670356564.839987,-9.415000000000001,-0.155,4.432,-0.6452,-0.3966,0.3654,0.004,0.017,-0.056
1670356564.879987,-9.441,-0.18,4.418,-0.6463,-0.39440000000000003,0.3437,0.002,0.02,-0.051000000000000004
1670356564.919987,-9.432,-0.17300000000000001,4.402,-0.6491,-0.394,0.3599,-0.004,0.019,-0.051000000000000004
1670356564.959987,-9.43,-0.153,4.377,-0.6463,-0.3955,0.35660000000000003,-0.002,0.017,-0.049
1670356564.999987,-9.445,-0.152,4.417,-0.646,-0.3947,0.34590000000000004,0.005,0.02,-0.047
1670356565.0399868,-9.455,-0.161,4.422,-0.6576000000000001,-0.3971,0.3524,0.001,0.019,-0.054
1670356565.079987,-9.446,-0.17300000000000001,4.404,-0.6466000000000001,-0.395,0.3446,0.0,0.021,-0.055
1670356565.119987,-9.413,-0.182,4.425,-0.6468,-0.39440000000000003,0.34740000000000004,-0.007,0.019,-0.053
1670356565.159986,-9.42,-0.186,4.422,-0.6465000000000001,-0.3937,0.34650000000000003,-0.003,0.022,-0.055
1670356565.199986,-9.473,-0.134,4.439,-0.6496000000000001,-0.39980000000000004,0.35600000000000004,0.004,0.025,-0.058
1670356565.239986,-9.436,-0.232,4.396,-0.65,-0.3962,0.3466,-0.004,0.029,-0.051000000000000004
1670356565.279986,-9.378,-0.159,4.366,-0.6529,-0.39540000000000003,0.3462,-0.001,0.02,-0.041
1670356565.319986,-9.408,-0.146,4.384,-0.6436000000000001,-0.39280000000000004,0.34790000000000004,0.006,0.02,-0.05
1670356565.359986,-9.446,-0.171,4.4270000000000005,-0.6437,-0.3942,0.3482,0.003,0.016,-0.054
1670356565.399986,-9.452,-0.181,4.408,-0.6446000000000001,-0.3957,0.34490000000000004,0.006,0.014,-0.045
1670356565.439986,-9.382,-0.226,4.431,-0.643,-0.3925,0.34440000000000004,0.0,0.011,-0.055
1670356565.479986,-9.36,-0.154,4.44,-0.6452,-0.3922,0.34800000000000003,0.0,0.017,-0.052000000000000005
1670356565.519986,-9.449,-0.247,4.399,-0.6449,-0.3957,0.34800000000000003,-0.003,0.023,-0.049
1670356565.559986,-9.419,-0.17300000000000001,4.385,-0.6458,-0.39230000000000004,0.3466,0.001,0.029,-0.042
1670356565.599986,-9.406,-0.157,4.425,-0.6473,-0.39430000000000004,0.34700000000000003,0.001,0.023,-0.042
1670356565.639986,-9.428,-0.165,4.3790000000000004,-0.6441,-0.39380000000000004,0.3458,0.0,0.018000000000000002,-0.055
1670356565.679986,-9.442,-0.168,4.4190000000000005,-0.6468,-0.3932,0.3443,0.009000000000000001,0.025,-0.056
1670356565.719986,-9.450000000000001,-0.221,4.377,-0.6451,-0.39230000000000004,0.3466,-0.004,0.021,-0.056
1670356565.759986,-9.437,-0.187,4.39,-0.6433,-0.3956,0.3463,-0.012,0.018000000000000002,-0.05
1670356565.799986,-9.428,-0.186,4.361,-0.6436000000000001,-0.3952,0.3468,-0.007,0.015,-0.052000000000000005
1670356565.8399858,-9.476,-0.181,4.4110000000000005,-0.6442,-0.39330000000000004,0.34740000000000004,-0.003,0.014,-0.062
1670356565.879986,-9.443,-0.201,4.406,-0.6455000000000001,-0.3921,0.3486,0.002,0.017,-0.056
1670356565.919986,-9.429,-0.21,4.406,-0.6433,-0.3935,0.3466,0.008,0.015,-0.048
1670356565.959986,-9.421,-0.202,4.407,-0.6457,-0.39490000000000003,0.34540000000000004,0.007,0.009000000000000001,-0.054
1670356565.999986,-9.427,-0.211,4.4190000000000005,-0.6452,-0.3936,0.3463,0.008,0.008,-0.045
1670356566.039986,-9.447000000000001,-0.198,4.404,-0.6473,-0.395,0.3453,0.006,0.019,-0.05
1670356566.0799859,-9.458,-0.167,4.432,-0.6519,-0.3961,0.34440000000000004,0.015,0.019,-0.051000000000000004
1670356566.119986,-9.431000000000001,-0.183,4.4270000000000005,-0.6457,-0.3922,0.3462,0.018000000000000002,0.032,-0.052000000000000005
1670356566.159986,-9.463000000000001,-0.244,4.409,-0.646,-0.3929,0.3461,0.013000000000000001,0.041,-0.045
1670356566.199986,-9.446,-0.151,4.452,-0.6452,-0.39380000000000004,0.3441,0.019,0.034,-0.055
1670356566.239986,-9.499,-0.196,4.37,-0.6425000000000001,-0.3929,0.3513,0.01,0.028,-0.05
1670356566.279985,-9.446,-0.23500000000000001,4.3420000000000005,-0.6443,-0.3956,0.3476,-0.007,0.032,-0.038
1670356566.319985,-9.409,-0.116,4.281,-0.6441,-0.3935,0.3472,-0.007,0.029,-0.048
1670356566.359985,-9.454,-0.136,4.345,-0.6444000000000001,-0.3946,0.3428,0.011,0.02,-0.058
1670356566.399985,-9.43,-0.187,4.399,-0.6429,-0.3935,0.34400000000000003,0.013000000000000001,0.009000000000000001,-0.059000000000000004
1670356566.439985,-9.505,-0.181,4.397,-0.6456000000000001,-0.3961,0.34550000000000003,0.01,0.005,-0.05
1670356566.479985,-9.464,-0.234,4.361,-0.6441,-0.3927,0.3435,-0.001,0.005,-0.059000000000000004
1670356566.519985,-9.431000000000001,-0.14,4.4110000000000005,-0.6466000000000001,-0.3952,0.3476,0.003,0.004,-0.053
1670356566.559985,-9.491,-0.222,4.355,-0.6454000000000001,-0.39440000000000003,0.34590000000000004,-0.004,0.017,-0.045
1670356566.599985,-9.457,-0.169,4.383,-0.6417,-0.3941,0.34740000000000004,0.0,0.021,-0.049
1670356566.6399848,-9.39,-0.156,4.4110000000000005,-0.6443,-0.3952,0.3427,0.012,0.018000000000000002,-0.047
1670356566.679985,-9.467,-0.167,4.382,-0.6451,-0.395,0.34800000000000003,0.018000000000000002,0.016,-0.05
1670356566.719985,-9.498,-0.181,4.396,-0.6447,-0.39430000000000004,0.3453,0.014,0.02,-0.061
1670356566.759985,-9.446,-0.20600000000000002,4.392,-0.6451,-0.3927,0.3438,0.0,0.021,-0.055
1670356566.799985,-9.417,-0.17400000000000002,4.394,-0.6457,-0.3927,0.3447,-0.012,0.023,-0.046
1670356566.839985,-9.449,-0.167,4.371,-0.6436000000000001,-0.3924,0.3466,-0.011,0.016,-0.051000000000000004
1670356566.8799849,-9.450000000000001,-0.178,4.372,-0.6432,-0.39380000000000004,0.34500000000000003,0.001,0.017,-0.054
1670356566.919985,-9.467,-0.186,4.359,-0.6485000000000001,-0.395,0.3684,0.0,0.012,-0.058
1670356566.959985,-9.467,-0.201,4.376,-0.6485000000000001,-0.3945,0.33740000000000003,0.005,0.009000000000000001,-0.056
1670356566.999985,-9.439,-0.201,4.4,-0.6464000000000001,-0.3945,0.35950000000000004,0.003,0.012,-0.053
1670356567.039985,-9.434000000000001,-0.192,4.4,-0.6517000000000001,-0.3945,0.35950000000000004,0.007,0.009000000000000001,-0.047
1670356567.079985,-9.437,-0.195,4.386,-0.6436000000000001,-0.396,0.3501,0.001,0.012,-0.045
1670356567.1199849,-9.443,-0.192,4.39,-0.6591,-0.398,0.3388,0.007,0.015,-0.045
1670356567.159985,-9.429,-0.181,4.397,-0.6456000000000001,-0.39530000000000004,0.3355,0.005,0.014,-0.056
1670356567.199985,-9.442,-0.192,4.368,-0.6518,-0.3967,0.34800000000000003,-0.002,0.019,-0.054
1670356567.239985,-9.417,-0.244,4.386,-0.6429,-0.39330000000000004,0.34490000000000004,-0.005,0.009000000000000001,-0.05
1670356567.279985,-9.469,-0.193,4.418,-0.6461,-0.39490000000000003,0.3513,0.007,0.011,-0.041
1670356567.319984,-9.53,-0.161,4.385,-0.6434000000000001,-0.3942,0.3512,0.003,0.027,-0.052000000000000005
1670356567.359984,-9.448,-0.178,4.372,-0.644,-0.392,0.34490000000000004,0.011,0.029,-0.055
1670356567.399984,-9.424,-0.231,4.339,-0.646,-0.3926,0.34790000000000004,0.0,0.015,-0.051000000000000004
1670356567.4399838,-9.44,-0.166,4.404,-0.6463,-0.3929,0.3433,-0.003,0.012,-0.055
1670356567.479984,-9.464,-0.186,4.394,-0.6447,-0.3916,0.3446,0.011,0.005,-0.058
1670356567.519984,-9.466000000000001,-0.196,4.373,-0.6444000000000001,-0.393,0.3448,0.012,0.011,-0.06
1670356567.559984,-9.46,-0.254,4.399,-0.6457,-0.3936,0.3471,0.001,0.014,-0.054
1670356567.599984,-9.443,-0.14400000000000002,4.397,-0.6477,-0.3952,0.3468,0.007,0.015,-0.057
1670356567.639984,-9.472,-0.22,4.4110000000000005,-0.6487,-0.3919,0.34550000000000003,0.0,0.019,-0.048
1670356567.6799839,-9.428,-0.20800000000000002,4.382,-0.6446000000000001,-0.3941,0.34490000000000004,0.0,0.02,-0.045
1670356567.719984,-9.425,-0.165,4.406,-0.6472,-0.3955,0.3466,0.006,0.018000000000000002,-0.046
1670356567.759984,-9.437,-0.18,4.402,-0.6457,-0.39330000000000004,0.34790000000000004,0.019,0.014,-0.055
1670356567.799984,-9.446,-0.20600000000000002,4.406,-0.6445000000000001,-0.39390000000000003,0.34690000000000004,0.019,0.009000000000000001,-0.058
1670356567.839984,-9.466000000000001,-0.233,4.406,-0.6462,-0.3945,0.3476,0.0,0.012,-0.055
1670356567.879984,-9.435,-0.20400000000000001,4.398,-0.6444000000000001,-0.3927,0.34700000000000003,-0.005,0.018000000000000002,-0.05
1670356567.9199839,-9.407,-0.184,4.367,-0.6443,-0.392,0.34540000000000004,0.005,0.011,-0.054
1670356567.959984,-9.431000000000001,-0.191,4.39,-0.6481,-0.39380000000000004,0.34540000000000004,0.008,0.012,-0.054
1670356567.999984,-9.429,-0.219,4.4430000000000005,-0.6459,-0.3919,0.3458,0.007,0.01,-0.052000000000000005
1670356568.039984,-9.428,-0.216,4.409,-0.6458,-0.3937,0.34640000000000004,0.002,0.015,-0.049
1670356568.079984,-9.423,-0.213,4.416,-0.6486000000000001,-0.39180000000000004,0.3453,0.003,0.014,-0.049
1670356568.119984,-9.413,-0.20500000000000002,4.4430000000000005,-0.6472,-0.3926,0.3458,-0.002,0.017,-0.042
1670356568.1599839,-9.429,-0.189,4.426,-0.6465000000000001,-0.39440000000000003,0.3457,0.008,0.019,-0.044
1670356568.199984,-9.423,-0.19,4.442,-0.6462,-0.396,0.3456,0.014,0.017,-0.047
1670356568.239984,-9.384,-0.303,4.423,-0.657,-0.3981,0.35650000000000004,-0.002,0.016,-0.054
1670356568.279984,-9.429,-0.17200000000000001,4.426,-0.6466000000000001,-0.3945,0.34690000000000004,0.003,0.017,-0.031
1670356568.319984,-9.472,-0.14100000000000001,4.409,-0.6446000000000001,-0.39380000000000004,0.3451,0.02,0.032,-0.036000000000000004
1670356568.359983,-9.423,-0.159,4.375,-0.6454000000000001,-0.3934,0.3457,0.027,0.033,-0.042
1670356568.399983,-9.374,-0.193,4.351,-0.6469,-0.3914,0.34850000000000003,0.016,0.016,-0.034
1670356568.439983,-9.46,-0.147,4.406,-0.6496000000000001,-0.3946,0.34600000000000003,0.014,0.004,-0.058
1670356568.4799829,-9.491,-0.17400000000000002,4.369,-0.6449,-0.3929,0.34740000000000004,0.015,0.016,-0.066
1670356568.519983,-9.47,-0.21,4.384,-0.6455000000000001,-0.3947,0.3488,0.001,0.026000000000000002,-0.064
1670356568.559983,-9.426,-0.243,4.381,-0.6462,-0.39330000000000004,0.34690000000000004,-0.017,0.024,-0.062
1670356568.599983,-9.448,-0.155,4.423,-0.6456000000000001,-0.39540000000000003,0.34950000000000003,-0.023,0.028,-0.043000000000000003
1670356568.639983,-9.47,-0.152,4.437,-0.6458,-0.39490000000000003,0.34740000000000004,-0.015,0.014,-0.04
1670356568.679983,-9.408,-0.128,4.448,-0.6454000000000001,-0.39280000000000004,0.3473,0.015,0.008,-0.041
1670356568.7199829,-9.426,-0.135,4.412,-0.644,-0.39380000000000004,0.34800000000000003,0.035,0.001,-0.046
1670356568.759983,-9.448,-0.151,4.37,-0.6452,-0.39230000000000004,0.35000000000000003,0.046,0.006,-0.058
1670356568.799983,-9.437,-0.202,4.394,-0.6436000000000001,-0.39590000000000003,0.34790000000000004,0.037,0.01,-0.056
1670356568.839983,-9.43,-0.245,4.415,-0.6456000000000001,-0.3945,0.34900000000000003,-0.004,0.018000000000000002,-0.045
1670356568.879983,-9.411,-0.182,4.396,-0.6435000000000001,-0.3929,0.34740000000000004,-0.019,0.015,-0.05
1670356568.919983,-9.431000000000001,-0.156,4.447,-0.6463,-0.39280000000000004,0.3482,-0.014,0.018000000000000002,-0.047
1670356568.9599829,-9.445,-0.134,4.455,-0.646,-0.39330000000000004,0.3463,-0.002,0.016,-0.062
1670356568.999983,-9.43,-0.198,4.4110000000000005,-0.6468,-0.3931,0.34840000000000004,0.01,0.022,-0.066
1670356569.039983,-9.434000000000001,-0.184,4.399,-0.6452,-0.395,0.34600000000000003,0.009000000000000001,0.016,-0.065
1670356569.079983,-9.432,-0.196,4.396,-0.6455000000000001,-0.3946,0.34650000000000003,0.003,0.015,-0.05
1670356569.119983,-9.441,-0.169,4.4350000000000005,-0.644,-0.3921,0.34850000000000003,-0.002,0.018000000000000002,-0.045
1670356569.159983,-9.398,-0.156,4.453,-0.6615,-0.3985,0.3498,0.012,0.01,-0.052000000000000005
1670356569.199983,-9.354000000000001,-0.179,4.42,-0.65,-0.39280000000000004,0.32030000000000003,0.009000000000000001,0.012,-0.055
1670356569.239983,-9.354000000000001,-0.152,4.4030000000000005,-0.65,-0.39390000000000003,0.3447,0.007,0.016,-0.052000000000000005
1670356569.279983,-9.475,-0.152,4.404,-0.6496000000000001,-0.39390000000000003,0.3447,0.01,0.025,-0.048
1670356569.319983,-9.446,-0.229,4.404,-0.6473,-0.396,0.35250000000000004,-0.007,0.032,-0.051000000000000004
1670356569.359983,-9.376,-0.177,4.397,-0.6466000000000001,-0.39580000000000004,0.3468,-0.016,0.03,-0.058
1670356569.399982,-9.394,-0.178,4.381,-0.6463,-0.3947,0.3437,-0.013000000000000001,0.026000000000000002,-0.053
1670356569.439982,-9.449,-0.17400000000000002,4.436,-0.6489,-0.39380000000000004,0.3526,0.0,0.014,-0.054
1670356569.479982,-9.437,-0.189,4.442,-0.6487,-0.3941,0.3458,0.008,0.019,-0.056
1670356569.5199819,-9.396,-0.23800000000000002,4.412,-0.6463,-0.3925,0.3482,0.004,0.01,-0.058
1670356569.559982,-9.38,-0.178,4.457,-0.6441,-0.39230000000000004,0.3451,0.009000000000000001,0.012,-0.054
1670356569.599982,-9.469,-0.249,4.446,-0.6447,-0.39230000000000004,0.34650000000000003,0.007,0.021,-0.053
1670356569.639982,-9.431000000000001,-0.17500000000000002,4.434,-0.6454000000000001,-0.3942,0.3466,0.001,0.022,-0.044
1670356569.679982,-9.403,-0.19,4.442,-0.6454000000000001,-0.3921,0.3507,0.006,0.011,-0.039
1670356569.719982,-9.421,-0.16,4.4110000000000005,-0.6466000000000001,-0.39330000000000004,0.3467,0.017,0.012,-0.057
1670356569.7599819,-9.455,-0.181,4.425,-0.6462,-0.3924,0.3453,0.004,0.017,-0.059000000000000004
1670356569.799982,-9.415000000000001,-0.23700000000000002,4.398,-0.6454000000000001,-0.3947,0.3477,-0.01,0.015,-0.053
1670356569.839982,-9.427,-0.222,4.429,-0.6491,-0.39390000000000003,0.3453,-0.011,0.022,-0.051000000000000004
1670356569.879982,-9.417,-0.20400000000000001,4.433,-0.6433,-0.39490000000000003,0.3471,0.0,0.03,-0.054
1670356569.919982,-9.404,-0.195,4.434,-0.6443,-0.3909,0.3471,0.001,0.03,-0.051000000000000004
1670356569.959982,-9.436,-0.191,4.448,-0.6458,-0.393,0.3463,0.005,0.026000000000000002,-0.053
1670356569.9999819,-9.442,-0.227,4.3950000000000005,-0.6552,-0.3986,0.3562,0.007,0.031,-0.052000000000000005
1670356570.039982,-9.44,-0.202,4.415,-0.6438,-0.39440000000000003,0.34540000000000004,-0.011,0.041,-0.037
1670356570.079982,-9.398,-0.201,4.404,-0.6449,-0.39230000000000004,0.34640000000000004,-0.002,0.028,-0.038
1670356570.119982,-9.418000000000001,-0.24,4.381,-0.646,-0.3934,0.3452,0.015,0.006,-0.046
1670356570.159982,-9.53,-0.14,4.401,-0.6439,-0.39330000000000004,0.34540000000000004,0.021,0.019,-0.051000000000000004
1670356570.199982,-9.505,-0.185,4.454,-0.643,-0.3934,0.34700000000000003,0.016,0.029,-0.041
1670356570.239982,-9.393,-0.156,4.372,-0.6426000000000001,-0.3942,0.34440000000000004,0.014,0.021,-0.049
1670356570.279982,-9.391,-0.196,4.34,-0.6459,-0.39490000000000003,0.34790000000000004,0.013000000000000001,0.018000000000000002,-0.057
1670356570.319982,-9.432,-0.19,4.389,-0.6447,-0.39480000000000004,0.3483,0.002,0.018000000000000002,-0.054
1670356570.359982,-9.472,-0.17400000000000002,4.422,-0.6435000000000001,-0.39380000000000004,0.34600000000000003,0.0,0.018000000000000002,-0.056
1670356570.399982,-9.386000000000001,-0.184,4.4110000000000005,-0.6471,-0.3942,0.3442,-0.004,0.016,-0.059000000000000004
1670356570.439981,-9.426,-0.196,4.415,-0.646,-0.3947,0.3463,-0.003,0.011,-0.048
1670356570.479981,-9.461,-0.198,4.4270000000000005,-0.6429,-0.39690000000000003,0.34400000000000003,0.002,0.029,-0.047
1670356570.519981,-9.457,-0.171,4.406,-0.6455000000000001,-0.3941,0.3462,0.01,0.033,-0.052000000000000005
1670356570.5599809,-9.399000000000001,-0.169,4.412,-0.6442,-0.3935,0.3463,0.008,0.032,-0.043000000000000003
1670356570.599981,-9.414,-0.158,4.38,-0.6433,-0.39280000000000004,0.3433,0.009000000000000001,0.029,-0.052000000000000005
1670356570.639981,-9.471,-0.162,4.375,-0.6444000000000001,-0.395,0.34390000000000004,0.013000000000000001,0.013000000000000001,-0.059000000000000004
1670356570.679981,-9.444,-0.214,4.366,-0.6452,-0.39530000000000004,0.34650000000000003,0.0,0.021,-0.063
1670356570.719981,-9.447000000000001,-0.21,4.343,-0.6457,-0.3932,0.3452,-0.014,0.018000000000000002,-0.052000000000000005
1670356570.759981,-9.467,-0.20800000000000002,4.393,-0.6471,-0.3919,0.34690000000000004,-0.015,0.017,-0.052000000000000005
1670356570.7999809,-9.455,-0.178,4.374,-0.6468,-0.3927,0.3476,-0.01,0.018000000000000002,-0.06
1670356570.839981,-9.443,-0.198,4.39,-0.6463,-0.392,0.3453,0.004,0.02,-0.054
1670356570.879981,-9.439,-0.224,4.396,-0.644,-0.3909,0.3463,0.0,0.021,-0.06
1670356570.919981,-9.467,-0.212,4.366,-0.6441,-0.3935,0.3466,0.001,0.021,-0.05
1670356570.959981,-9.424,-0.215,4.38,-0.647,-0.3919,0.3443,0.001,0.018000000000000002,-0.048
1670356570.999981,-9.444,-0.226,4.409,-0.6451,-0.3921,0.34390000000000004,0.002,0.016,-0.053
1670356571.039981,-9.451,-0.218,4.423,-0.6427,-0.3915,0.34500000000000003,-0.002,0.008,-0.053
1670356571.079981,-9.473,-0.139,4.385,-0.6429,-0.3911,0.3437,0.01,0.023,-0.038
1670356571.119981,-9.444,-0.263,4.346,-0.6419,-0.3927,0.3441,0.012,0.036000000000000004,-0.058
1670356571.159981,-9.439,-0.196,4.332,-0.6447,-0.392,0.3477,0.013000000000000001,0.033,-0.064
1670356571.199981,-9.411,-0.20700000000000002,4.314,-0.6454000000000001,-0.3925,0.3451,-0.005,0.019,-0.048
1670356571.239981,-9.443,-0.20400000000000001,4.363,-0.6496000000000001,-0.3935,0.3453,-0.01,0.013000000000000001,-0.053
1670356571.279981,-9.46,-0.182,4.4270000000000005,-0.6437,-0.3919,0.3447,0.0,0.004,-0.058
1670356571.319981,-9.433,-0.23500000000000001,4.3870000000000005,-0.644,-0.3916,0.3472,0.003,0.005,-0.058
1670356571.359981,-9.397,-0.197,4.3870000000000005,-0.6454000000000001,-0.3941,0.34440000000000004,-0.002,0.004,-0.053
1670356571.399981,-9.462,-0.281,4.367,-0.6447,-0.39280000000000004,0.34440000000000004,0.0,0.012,-0.052000000000000005
1670356571.439981,-9.438,-0.203,4.37,-0.6463,-0.39330000000000004,0.3183,0.0,0.018000000000000002,-0.056
1670356571.399981,-9.432,-0.194,4.375,-0.6488,-0.393,0.3382,0.003,0.021,-0.048
1670356571.439981,-9.432,-0.194,4.378,-0.6488,-0.393,0.3244,0.002,0.015,-0.046
1670356571.47998,-9.415000000000001,-0.2,4.378,-0.6444000000000001,-0.39130000000000004,0.3244,0.011,0.015,-0.053
1670356571.51998,-9.445,-0.20500000000000002,4.4110000000000005,-0.6449,-0.3922,0.3271,0.015,0.023,-0.06
1670356571.55998,-9.457,-0.24,4.413,-0.6479,-0.39440000000000003,0.35860000000000003,0.0,0.031,-0.05
1670356571.5999799,-9.42,-0.248,4.405,-0.6449,-0.3914,0.3593,-0.008,0.03,-0.052000000000000005
1670356571.63998,-9.452,-0.227,4.36,-0.6473,-0.3907,0.3466,-0.005,0.034,-0.05
1670356571.67998,-9.467,-0.20700000000000002,4.337,-0.6448,-0.39230000000000004,0.34450000000000003,0.001,0.031,-0.051000000000000004
1670356571.71998,-9.459,-0.213,4.372,-0.6429,-0.3916,0.3446,0.001,0.026000000000000002,-0.05
1670356571.75998,-9.444,-0.213,4.352,-0.6451,-0.39380000000000004,0.3451,0.002,0.018000000000000002,-0.06
1670356571.79998,-9.442,-0.23600000000000002,4.372,-0.6447,-0.3921,0.3437,0.003,0.013000000000000001,-0.047
1670356571.83998,-9.456,-0.223,4.372,-0.6426000000000001,-0.3921,0.3413,-0.004,0.015,-0.057
1670356571.87998,-9.46,-0.241,4.392,-0.6413,-0.3931,0.3435,-0.003,0.016,-0.054
1670356571.91998,-9.357,-0.243,4.367,-0.6484,-0.395,0.3496,-0.006,0.018000000000000002,-0.049
1670356571.95998,-9.433,-0.198,4.412,-0.6432,-0.3922,0.3453,0.008,0.009000000000000001,-0.034
1670356571.99998,-9.504,-0.259,4.388,-0.6576000000000001,-0.3942,0.34440000000000004,0.017,0.027,-0.055
1670356572.03998,-9.43,-0.19,4.345,-0.6468,-0.39330000000000004,0.3433,-0.001,0.031,-0.056
1670356572.07998,-9.427,-0.247,4.331,-0.6471,-0.392,0.3516,-0.014,0.018000000000000002,-0.035
1670356572.11998,-9.464,-0.20600000000000002,4.322,-0.6441,-0.3925,0.3433,0.0,0.017,-0.045
1670356572.15998,-9.477,-0.196,4.361,-0.6457,-0.394,0.34400000000000003,0.015,0.015,-0.055
1670356572.19998,-9.417,-0.227,4.37,-0.6436000000000001,-0.3925,0.34500000000000003,0.014,0.009000000000000001,-0.056
1670356572.23998,-9.418000000000001,-0.21,4.346,-0.65,-0.3915,0.34790000000000004,0.015,0.003,-0.055
1670356572.27998,-9.463000000000001,-0.281,4.378,-0.6445000000000001,-0.3915,0.34500000000000003,0.007,0.009000000000000001,-0.045
1670356572.31998,-9.444,-0.18,4.372,-0.6436000000000001,-0.3921,0.3428,0.007,0.017,-0.046
1670356572.35998,-9.402000000000001,-0.202,4.416,-0.6408,-0.3932,0.3452,0.016,0.007,-0.042
1670356572.39998,-9.414,-0.199,4.405,-0.6425000000000001,-0.39390000000000003,0.34550000000000003,0.022,0.008,-0.046
1670356572.43998,-9.457,-0.193,4.383,-0.647,-0.3927,0.3453,0.025,0.009000000000000001,-0.053
1670356572.47998,-9.446,-0.22,4.365,-0.6452,-0.3942,0.34540000000000004,0.005,0.009000000000000001,-0.05
1670356572.519979,-9.452,-0.225,4.396,-0.6435000000000001,-0.3935,0.3472,0.004,0.014,-0.046
1670356572.559979,-9.442,-0.213,4.363,-0.6443,-0.39330000000000004,0.3447,-0.001,0.008,-0.054
1670356572.599979,-9.46,-0.213,4.405,-0.6444000000000001,-0.3932,0.34650000000000003,-0.005,0.012,-0.046
1670356572.639979,-9.449,-0.2,4.397,-0.6454000000000001,-0.393,0.3487,-0.002,0.008,-0.054
1670356572.679979,-9.427,-0.195,4.364,-0.6463,-0.39280000000000004,0.3431,0.009000000000000001,0.006,-0.054
1670356572.719979,-9.417,-0.199,4.381,-0.6441,-0.3925,0.34540000000000004,0.016,0.006,-0.053
1670356572.759979,-9.435,-0.228,4.423,-0.6451,-0.3922,0.34440000000000004,0.007,0.007,-0.05
1670356572.799979,-9.442,-0.183,4.416,-0.6466000000000001,-0.39380000000000004,0.34550000000000003,0.006,0.015,-0.052000000000000005
1670356572.839979,-9.411,-0.197,4.439,-0.6475000000000001,-0.3942,0.34500000000000003,0.008,0.017,-0.054
1670356572.879979,-9.372,-0.247,4.433,-0.647,-0.39390000000000003,0.34790000000000004,0.0,0.015,-0.05
1670356572.919979,-9.474,-0.188,4.4270000000000005,-0.6468,-0.3947,0.34640000000000004,-0.002,0.025,-0.044
1670356572.959979,-9.513,-0.218,4.445,-0.6463,-0.3914,0.3441,0.004,0.027,-0.05
1670356572.999979,-9.419,-0.213,4.396,-0.6443,-0.39130000000000004,0.3468,-0.008,0.028,-0.055
1670356573.039979,-9.394,-0.219,4.339,-0.6461,-0.3927,0.34650000000000003,-0.01,0.02,-0.048
1670356573.079979,-9.451,-0.193,4.378,-0.6457,-0.3942,0.34600000000000003,-0.005,0.01,-0.054
1670356573.119979,-9.436,-0.213,4.458,-0.6428,-0.3896,0.3476,0.006,0.005,-0.052000000000000005
1670356573.159979,-9.415000000000001,-0.234,4.45,-0.6469,-0.3919,0.34440000000000004,0.004,0.001,-0.062
1670356573.199979,-9.434000000000001,-0.23500000000000001,4.453,-0.6461,-0.3934,0.3463,0.004,0.003,-0.066
1670356573.239979,-9.458,-0.253,4.4670000000000005,-0.6495000000000001,-0.3917,0.34700000000000003,-0.002,0.011,-0.053
1670356573.279979,-9.446,-0.243,4.477,-0.6469,-0.3952,0.3508,-0.002,0.013000000000000001,-0.044
1670356573.319979,-9.382,-0.217,4.448,-0.6466000000000001,-0.38820000000000005,0.34540000000000004,0.005,0.017,-0.042
1670356573.359979,-9.397,-0.193,4.447,-0.6451,-0.3904,0.34640000000000004,0.007,0.016,-0.043000000000000003
1670356573.399979,-9.422,-0.19,4.481,-0.6493,-0.3927,0.3526,0.024,0.012,-0.057
1670356573.439979,-9.436,-0.255,4.416,-0.6452,-0.3951,0.34550000000000003,0.015,0.022,-0.049
1670356573.479979,-9.386000000000001,-0.23900000000000002,4.447,-0.6465000000000001,-0.3921,0.34600000000000003,0.0,0.025,-0.04
1670356573.519979,-9.43,-0.21,4.424,-0.6446000000000001,-0.3902,0.3456,0.0,0.018000000000000002,-0.048
1670356573.559978,-9.436,-0.211,4.4670000000000005,-0.6458,-0.3922,0.3443,0.007,0.02,-0.05
1670356573.599978,-9.407,-0.225,4.442,-0.6442,-0.392,0.35860000000000003,0.009000000000000001,0.024,-0.049
1670356573.639978,-9.404,-0.216,4.41,-0.6442,-0.39080000000000004,0.3482,0.016,0.015,-0.05
1670356573.679978,-9.404,-0.216,4.413,-0.6474000000000001,-0.39080000000000004,0.3201,0.014,0.014,-0.043000000000000003
1670356573.719978,-9.421,-0.2,4.413,-0.6474000000000001,-0.39430000000000004,0.3201,0.023,0.012,-0.043000000000000003
1670356573.759978,-9.451,-0.214,4.455,-0.6455000000000001,-0.39630000000000004,0.3628,0.023,0.02,-0.041
1670356573.799978,-9.406,-0.192,4.457,-0.6482,-0.39630000000000004,0.3458,0.026000000000000002,0.015,-0.04
1670356573.839978,-9.424,-0.20500000000000002,4.425,-0.6476000000000001,-0.3955,0.34140000000000004,0.007,0.018000000000000002,-0.039
1670356573.879978,-9.366,-0.192,4.442,-0.6466000000000001,-0.3922,0.34540000000000004,0.005,0.016,-0.038
1670356573.919978,-9.425,-0.167,4.437,-0.6463,-0.39380000000000004,0.3462,0.02,0.019,-0.045
1670356573.959978,-9.431000000000001,-0.197,4.432,-0.6483,-0.3936,0.3456,0.025,0.019,-0.055
1670356573.999978,-9.391,-0.135,4.42,-0.6519,-0.39390000000000003,0.3507,0.013000000000000001,0.03,-0.052000000000000005
1670356574.039978,-9.421,-0.191,4.393,-0.6456000000000001,-0.3914,0.34790000000000004,0.001,0.025,-0.053
1670356574.079978,-9.482,-0.186,4.43,-0.648,-0.39490000000000003,0.3471,-0.003,0.034,-0.054
1670356574.119978,-9.478,-0.213,4.422,-0.6472,-0.39330000000000004,0.3446,-0.02,0.029,-0.053
1670356574.159978,-9.435,-0.28300000000000003,4.414,-0.6584,-0.3977,0.3548,-0.034,0.022,-0.052000000000000005
1670356574.199978,-9.43,-0.111,4.404,-0.646,-0.393,0.34540000000000004,-0.01,0.013000000000000001,-0.044
1670356574.239978,-9.343,-0.291,4.306,-0.648,-0.3942,0.34700000000000003,-0.029,0.006,-0.057
1670356574.279978,-9.158,-0.04,4.574,-0.6477,-0.39480000000000004,0.3473,0.003,-0.062,-0.014
1670356574.319978,-9.439,0.12,4.611,-0.6485000000000001,-0.3929,0.3503,0.078,-0.001,-0.136
1670356574.359978,-9.588000000000001,-0.261,4.4190000000000005,-0.647,-0.3911,0.3458,0.037,0.07200000000000001,-0.156
1670356574.399978,-9.59,-0.324,4.292,-0.6474000000000001,-0.3925,0.34790000000000004,-0.044,0.116,-0.083
1670356574.439978,-9.337,-0.334,4.284,-0.6469,-0.39330000000000004,0.3441,-0.14100000000000001,0.1,0.009000000000000001
1670356574.4799778,-9.555,-0.128,4.227,-0.6441,-0.391,0.34240000000000004,-0.135,0.078,0.028
1670356574.519978,-9.314,-0.013000000000000001,4.298,-0.6452,-0.38820000000000005,0.3411,-0.033,0.02,-0.037
1670356574.559978,-9.427,-0.079,4.3340000000000005,-0.6432,-0.39080000000000004,0.34040000000000004,0.024,-0.004,-0.10200000000000001
1670356574.599977,-9.415000000000001,-0.356,4.3870000000000005,-0.6438,-0.3894,0.34190000000000004,0.004,-0.031,-0.116
1670356574.639977,-9.452,-0.483,4.4110000000000005,-0.6438,-0.38970000000000005,0.34240000000000004,-0.032,-0.029,-0.096
1670356574.679977,-9.443,-0.232,4.463,-0.6461,-0.39130000000000004,0.3443,-0.009000000000000001,-0.038,-0.109
1670356574.719977,-9.375,-0.732,4.385,-0.6487,-0.38830000000000003,0.34540000000000004,-0.037,-0.027,-0.11
1670356574.759977,-9.407,-0.152,4.424,-0.6484,-0.38620000000000004,0.3472,0.013000000000000001,-0.012,-0.098
1670356574.799977,-9.226,-0.262,4.465,-0.6499,-0.3889,0.3462,0.088,-0.001,-0.157
1670356574.839977,-9.225,-0.186,4.649,-0.6512,-0.38930000000000003,0.3477,0.158,0.0,-0.155
1670356574.879977,-9.777000000000001,-0.555,4.521,-0.6489,-0.388,0.3472,0.083,0.069,-0.11
1670356574.919977,-9.499,-0.596,4.3790000000000004,-0.647,-0.3874,0.3471,-0.045,0.067,-0.055
1670356574.959977,-9.279,-0.35000000000000003,4.364,-0.6507000000000001,-0.39030000000000004,0.34440000000000004,-0.064,0.042,-0.074
1670356574.999977,-9.423,-0.40800000000000003,4.39,-0.6479,-0.3875,0.3435,-0.043000000000000003,0.028,-0.073
1670356575.039977,-9.61,-0.384,4.371,-0.6488,-0.3869,0.3442,-0.035,0.029,0.017
1670356575.079977,-9.321,-0.266,4.305,-0.6496000000000001,-0.3875,0.3438,0.003,0.024,0.012
1670356575.119977,-9.196,-0.377,4.361,-0.6474000000000001,-0.3886,0.34440000000000004,0.063,-0.025,-0.064
1670356575.159977,-9.448,-0.638,4.348,-0.6482,-0.3895,0.34650000000000003,0.052000000000000005,-0.022,-0.06
1670356575.199977,-9.579,-0.687,4.392,-0.649,-0.3886,0.34800000000000003,0.003,-0.01,0.001
1670356575.239977,-9.532,-0.509,4.32,-0.6532,-0.3902,0.3451,-0.027,0.015,0.038
1670356575.2799768,-9.388,-0.441,4.293,-0.6498,-0.39,0.34650000000000003,-0.064,0.008,0.026000000000000002
1670356575.319977,-9.337,-0.274,4.428,-0.6478,-0.3912,0.34940000000000004,-0.065,-0.002,0.015
1670356575.359977,-9.366,-0.638,4.49,-0.6461,-0.38830000000000003,0.3426,-0.128,-0.004,0.012
1670356575.399977,-9.472,-0.367,4.564,-0.648,-0.3875,0.3451,-0.188,0.045,0.064
1670356575.439977,-9.3,-0.041,4.6370000000000005,-0.6456000000000001,-0.38780000000000003,0.3433,-0.14,0.041,0.096
1670356575.479977,-9.344,0.20700000000000002,4.551,-0.6451,-0.38870000000000005,0.3425,0.0,0.047,0.042
1670356575.5199769,-9.294,0.038,4.438,-0.6427,-0.3881,0.34440000000000004,0.10400000000000001,0.053,0.01
1670356575.559977,-9.363,-0.035,4.374,-0.6454000000000001,-0.38920000000000005,0.3432,0.131,0.07,-0.005
1670356575.599977,-9.461,0.038,4.257,-0.6448,-0.3914,0.34240000000000004,0.095,0.07100000000000001,-0.015
1670356575.639977,-9.47,0.008,4.2700000000000005,-0.643,-0.3937,0.34740000000000004,0.069,0.083,-0.028
1670356575.679977,-9.393,0.029,4.392,-0.6384000000000001,-0.3941,0.34290000000000004,0.035,0.085,-0.05
1670356575.719976,-9.53,-0.112,4.337,-0.6399,-0.3921,0.3411,0.035,0.066,-0.1
1670356575.759976,-9.633000000000001,-0.153,4.227,-0.6391,-0.3924,0.3387,-0.02,0.065,-0.094
1670356575.799976,-9.72,-0.097,4.112,-0.6383,-0.391,0.3413,-0.053,0.07200000000000001,-0.08700000000000001
1670356575.839976,-9.375,0.005,4.381,-0.6389,-0.391,0.3361,-0.059000000000000004,0.149,-0.131
1670356575.879976,-9.294,-0.147,4.287,-0.6407,-0.3876,0.3482,-0.032,0.20400000000000001,-0.11
1670356575.919976,-9.294,-0.147,4.143,-0.6407,-0.391,0.35650000000000004,0.01,0.21,-0.094
1670356575.959976,-9.601,-0.147,4.066,-0.6375000000000001,-0.391,0.3195,0.039,0.18,-0.114
1670356575.999976,-9.522,-0.323,4.066,-0.6363,-0.3902,0.3195,0.082,0.162,-0.106
1670356576.039976,-9.703,-0.22,3.93,-0.6324000000000001,-0.3874,0.3463,0.073,0.08700000000000001,-0.135
1670356576.0799758,-9.742,-0.359,3.927,-0.6386000000000001,-0.3906,0.35400000000000004,0.093,-0.001,-0.129
1670356576.119976,-9.705,-0.34700000000000003,3.8770000000000002,-0.6335000000000001,-0.3895,0.3309,0.079,-0.025,-0.11800000000000001
1670356576.159976,-9.620000000000001,-0.22,3.989,-0.6407,-0.3906,0.33530000000000004,0.036000000000000004,-0.036000000000000004,-0.091
1670356576.199976,-9.389,-0.621,4.0,-0.633,-0.3899,0.3365,0.0,-0.081,-0.075
1670356576.239976,-9.533,-0.28700000000000003,3.994,-0.6374000000000001,-0.3895,0.336,0.005,-0.13,-0.06
1670356576.279976,-9.667,-0.259,3.987,-0.6395000000000001,-0.39030000000000004,0.3356,0.05,-0.10300000000000001,-0.066
1670356576.3199759,-9.674,-0.23600000000000002,4.083,-0.6395000000000001,-0.38970000000000005,0.3402,0.08,-0.066,-0.08700000000000001
1670356576.359976,-9.56,-0.368,4.127,-0.6403,-0.38970000000000005,0.3382,0.075,-0.056,-0.085
1670356576.399976,-9.537,-0.378,4.158,-0.6389,-0.3919,0.3408,0.012,-0.046,-0.085
1670356576.439976,-9.516,-0.354,4.178,-0.6393,-0.3922,0.343,-0.032,-0.041,-0.083
1670356576.479976,-9.475,-0.32,4.17,-0.6424000000000001,-0.3902,0.34290000000000004,-0.06,-0.051000000000000004,-0.078
1670356576.519976,-9.513,-0.156,4.246,-0.6413,-0.3866,0.3421,-0.04,-0.046,-0.075
1670356576.5599759,-9.495000000000001,-0.23700000000000002,4.299,-0.6413,-0.38880000000000003,0.3421,0.001,-0.039,-0.109
1670356576.599976,-9.537,-0.299,4.226,-0.6432,-0.3869,0.3415,0.007,-0.027,-0.105
1670356576.639976,-9.519,-0.298,4.238,-0.6444000000000001,-0.3911,0.34440000000000004,0.025,-0.031,-0.088
1670356576.679976,-9.491,-0.342,4.317,-0.6429,-0.38920000000000005,0.3452,0.031,-0.023,-0.08
1670356576.719976,-9.495000000000001,-0.333,4.316,-0.644,-0.3884,0.34440000000000004,0.025,-0.012,-0.065
1670356576.759975,-9.436,-0.341,4.344,-0.647,-0.3895,0.34550000000000003,0.015,-0.019,-0.076
1670356576.799975,-9.389,-0.302,4.391,-0.6436000000000001,-0.3922,0.34690000000000004,0.015,-0.01,-0.061
1670356576.839975,-9.445,-0.41600000000000004,4.369,-0.6496000000000001,-0.38770000000000004,0.3452,0.005,0.012,-0.057
1670356576.879975,-9.478,-0.364,4.327,-0.6471,-0.38930000000000003,0.3446,-0.016,0.017,-0.054
1670356576.919975,-9.454,-0.365,4.331,-0.6418,-0.3869,0.34450000000000003,-0.01,0.02,-0.046
1670356576.959975,-9.451,-0.34400000000000003,4.349,-0.6458,-0.3879,0.34490000000000004,0.007,0.02,-0.06
1670356576.999975,-9.495000000000001,-0.374,4.383,-0.6461,-0.38770000000000004,0.34290000000000004,0.018000000000000002,0.015,-0.058
1670356577.039975,-9.466000000000001,-0.374,4.367,-0.6468,-0.38880000000000003,0.34490000000000004,0.022,0.011,-0.05
1670356577.079975,-9.461,-0.397,4.333,-0.6479,-0.3895,0.3443,0.024,0.017,-0.042
1670356577.1199749,-9.463000000000001,-0.374,4.311,-0.6454000000000001,-0.3895,0.3435,0.022,0.012,-0.044
1670356577.159975,-9.469,-0.36,4.361,-0.6448,-0.3891,0.3451,0.014,0.006,-0.05
1670356577.199975,-9.423,-0.371,4.39,-0.6458,-0.3881,0.34650000000000003,0.004,0.011,-0.041
1670356577.239975,-9.412,-0.338,4.353,-0.653,-0.3894,0.3462,0.009000000000000001,0.005,-0.05
1670356577.279975,-9.503,-0.319,4.357,-0.6527000000000001,-0.38970000000000005,0.34500000000000003,0.013000000000000001,0.009000000000000001,-0.049
1670356577.319975,-9.447000000000001,-0.366,4.353,-0.643,-0.38770000000000004,0.34790000000000004,0.011,0.016,-0.046
1670356577.3599749,-9.378,-0.299,4.378,-0.6477,-0.3906,0.3443,0.009000000000000001,0.019,-0.038
1670356577.399975,-9.467,-0.311,4.3790000000000004,-0.6465000000000001,-0.3905,0.3488,0.015,0.016,-0.049
1670356577.439975,-9.458,-0.327,4.385,-0.6468,-0.3931,0.3473,0.011,0.017,-0.059000000000000004
1670356577.479975,-9.387,-0.34500000000000003,4.372,-0.6484,-0.3899,0.3433,-0.011,0.017,-0.059000000000000004
1670356577.519975,-9.402000000000001,-0.331,4.361,-0.646,-0.3906,0.34440000000000004,-0.025,0.02,-0.049
1670356577.559975,-9.479000000000001,-0.301,4.384,-0.6455000000000001,-0.3861,0.3436,0.003,0.018000000000000002,-0.061
1670356577.5999749,-9.452,-0.323,4.352,-0.6478,-0.3879,0.34650000000000003,0.003,0.016,-0.058
1670356577.639975,-9.409,-0.301,4.345,-0.6457,-0.39,0.34790000000000004,0.012,0.02,-0.048
1670356577.679975,-9.428,-0.34500000000000003,4.376,-0.6453,-0.3866,0.34550000000000003,0.008,0.011,-0.045
1670356577.719975,-9.434000000000001,-0.332,4.353,-0.646,-0.389,0.3468,0.007,0.008,-0.058
1670356577.759975,-9.412,-0.353,4.339,-0.6471,-0.3895,0.3427,0.001,0.004,-0.06
1670356577.799974,-9.42,-0.369,4.414,-0.6469,-0.39,0.3481,0.0,0.002,-0.053
1670356577.839974,-9.435,-0.352,4.39,-0.646,-0.38870000000000005,0.3468,-0.006,0.01,-0.057
1670356577.879974,-9.439,-0.327,4.3790000000000004,-0.6491,-0.3902,0.34700000000000003,-0.003,0.015,-0.056
1670356577.9199739,-9.422,-0.35100000000000003,4.479,-0.6487,-0.3885,0.3441,0.003,0.013000000000000001,-0.051000000000000004
1670356577.959974,-9.42,-0.401,4.4,-0.6472,-0.3909,0.34750000000000003,0.0,0.016,-0.052000000000000005
1670356577.999974,-9.436,-0.331,4.422,-0.6467,-0.3866,0.3447,0.0,0.004,-0.05
1670356578.039974,-9.472,-0.325,4.436,-0.6474000000000001,-0.38780000000000003,0.34640000000000004,0.013000000000000001,0.017,-0.043000000000000003
1670356578.079974,-9.418000000000001,-0.354,4.3870000000000005,-0.647,-0.3894,0.3482,0.014,0.023,-0.051000000000000004
1670356578.119974,-9.36,-0.33,4.364,-0.6491,-0.3901,0.3345,0.014,0.019,-0.05
1670356578.1599739,-9.424,-0.356,4.3950000000000005,-0.6485000000000001,-0.3885,0.3698,0.018000000000000002,0.012,-0.051000000000000004
1670356578.199974,-9.424,-0.329,4.388,-0.6485000000000001,-0.39130000000000004,0.3614,0.01,0.007,-0.041
1670356578.239974,-9.451,-0.329,4.388,-0.6561,-0.39130000000000004,0.3614,0.006,0.016,-0.043000000000000003
1670356578.279974,-9.408,-0.359,4.4590000000000005,-0.6489,-0.3889,0.35400000000000004,-0.001,0.005,-0.054
1670356578.319974,-9.384,-0.326,4.399,-0.649,-0.3891,0.3189,0.002,-0.005,-0.05
1670356578.359974,-9.458,-0.334,4.3870000000000005,-0.651,-0.38870000000000005,0.3599,0.009000000000000001,0.014,-0.051000000000000004
1670356578.3999739,-9.47,-0.35100000000000003,4.438,-0.6457,-0.3907,0.3584,0.006,0.01,-0.043000000000000003
1670356578.439974,-9.365,-0.308,4.456,-0.6477,-0.39,0.3471,0.011,0.002,-0.043000000000000003
1670356578.479974,-9.399000000000001,-0.334,4.421,-0.6457,-0.3874,0.34790000000000004,0.017,0.006,-0.05
1670356578.519974,-9.455,-0.308,4.405,-0.6457,-0.3869,0.3493,0.022,0.009000000000000001,-0.051000000000000004
1670356578.559974,-9.42,-0.34800000000000003,4.441,-0.6488,-0.38880000000000003,0.3483,0.012,0.012,-0.05
1670356578.599974,-9.389,-0.301,4.45,-0.6505000000000001,-0.38980000000000004,0.34850000000000003,0.018000000000000002,0.011,-0.059000000000000004
1670356578.6399739,-9.427,-0.358,4.39,-0.6485000000000001,-0.39030000000000004,0.34900000000000003,0.016,0.003,-0.063
1670356578.679974,-9.451,-0.359,4.392,-0.6458,-0.39080000000000004,0.3462,-0.006,0.011,-0.039
1670356578.719974,-9.403,-0.312,4.444,-0.6464000000000001,-0.3889,0.3468,-0.002,0.021,-0.04
1670356578.759974,-9.427,-0.32,4.418,-0.648,-0.39030000000000004,0.3477,0.012,0.018000000000000002,-0.059000000000000004
1670356578.799974,-9.39,-0.314,4.429,-0.648,-0.3905,0.3481,0.016,0.016,-0.058
1670356578.839973,-9.326,-0.41200000000000003,4.43,-0.6485000000000001,-0.3871,0.3482,-0.007,0.008,-0.048
1670356578.879973,-9.43,-0.321,4.449,-0.6482,-0.38780000000000003,0.3462,-0.001,0.018000000000000002,-0.036000000000000004
1670356578.919973,-9.484,-0.301,4.482,-0.6505000000000001,-0.3905,0.3493,0.008,0.023,-0.05
1670356578.9599729,-9.375,-0.29,4.416,-0.6537000000000001,-0.3899,0.3508,0.009000000000000001,0.031,-0.049
1670356578.999973,-9.369,-0.341,4.414,-0.6455000000000001,-0.3916,0.3468,0.007,0.015,-0.049
1670356579.039973,-9.424,-0.329,4.416,-0.6526000000000001,-0.3919,0.3443,0.004,0.019,-0.05
1670356579.079973,-9.4,-0.322,4.452,-0.6455000000000001,-0.3909,0.3504,0.0,0.01,-0.053
1670356579.119973,-9.385,-0.331,4.449,-0.6485000000000001,-0.38920000000000005,0.3482,-0.004,0.009000000000000001,-0.061
1670356579.159973,-9.319,-0.312,4.453,-0.648,-0.3891,0.3491,0.0,0.003,-0.051000000000000004
1670356579.1999729,-9.423,-0.366,4.463,-0.6462,-0.38770000000000004,0.34740000000000004,0.005,0.012,-0.047
1670356579.239973,-9.425,-0.293,4.445,-0.6456000000000001,-0.3895,0.34850000000000003,0.004,0.013000000000000001,-0.045
1670356579.279973,-9.358,-0.318,4.463,-0.6494,-0.3895,0.34890000000000004,0.007,0.013000000000000001,-0.041
1670356579.319973,-9.397,-0.304,4.484,-0.6467,-0.38780000000000003,0.34700000000000003,0.017,0.014,-0.047
1670356579.359973,-9.403,-0.308,4.47,-0.6488,-0.38970000000000005,0.3472,0.018000000000000002,0.006,-0.054
1670356579.399973,-9.403,-0.359,4.49,-0.6497,-0.3905,0.3472,0.004,0.012,-0.051000000000000004
1670356579.4399729,-9.375,-0.329,4.463,-0.6486000000000001,-0.391,0.3476,-0.007,0.016,-0.056
1670356579.479973,-9.386000000000001,-0.321,4.46,-0.6493,-0.3886,0.34900000000000003,-0.005,0.015,-0.05
1670356579.519973,-9.414,-0.332,4.464,-0.6501,-0.38880000000000003,0.34650000000000003,-0.003,0.025,-0.056
1670356579.559973,-9.39,-0.35000000000000003,4.465,-0.6512,-0.3902,0.3501,-0.001,0.02,-0.045
1670356579.599973,-9.39,-0.331,4.4670000000000005,-0.6487,-0.3879,0.3491,0.0,0.017,-0.053
1670356579.639973,-9.387,-0.329,4.496,-0.6482,-0.3895,0.3437,0.005,0.017,-0.049
1670356579.679973,-9.431000000000001,-0.33,4.482,-0.6495000000000001,-0.38920000000000005,0.34590000000000004,0.014,0.019,-0.054
1670356579.719973,-9.397,-0.339,4.458,-0.6485000000000001,-0.3874,0.34990000000000004,0.015,0.021,-0.049
1670356579.759973,-9.416,-0.371,4.493,-0.6476000000000001,-0.3876,0.3492,0.006,0.013000000000000001,-0.054
1670356579.799973,-9.402000000000001,-0.337,4.519,-0.6476000000000001,-0.3917,0.3492,-0.003,0.006,-0.052000000000000005
1670356579.839973,-9.39,-0.252,4.491,-0.6488,-0.39030000000000004,0.34800000000000003,0.014,0.002,-0.042
1670356579.879972,-9.385,-0.371,4.42,-0.6485000000000001,-0.3911,0.3483,0.012,0.018000000000000002,-0.05
1670356579.919972,-9.348,-0.292,4.4590000000000005,-0.6485000000000001,-0.3917,0.3491,0.012,0.021,-0.06
1670356579.959972,-9.378,-0.34600000000000003,4.44,-0.651,-0.39,0.3522,0.004,0.014,-0.045
1670356579.9999719,-9.372,-0.317,4.455,-0.6471,-0.38970000000000005,0.3487,-0.003,0.015,-0.043000000000000003
1670356580.039972,-9.414,-0.312,4.522,-0.65,-0.3886,0.34690000000000004,0.0,0.015,-0.044
1670356580.079972,-9.412,-0.365,4.491,-0.6458,-0.3906,0.34790000000000004,0.006,0.005,-0.056
1670356580.119972,-9.4,-0.276,4.474,-0.6474000000000001,-0.3916,0.35050000000000003,0.006,0.011,-0.042
1670356580.159972,-9.411,-0.35100000000000003,4.47,-0.6499,-0.391,0.3472,0.005,0.021,-0.036000000000000004
1670356580.199972,-9.391,-0.32,4.423,-0.6499,-0.39180000000000004,0.3496,0.005,0.034,-0.047
1670356580.2399719,-9.347,-0.294,4.45,-0.6494,-0.3911,0.35100000000000003,0.005,0.018000000000000002,-0.043000000000000003
1670356580.279972,-9.391,-0.28,4.462,-0.6455000000000001,-0.39230000000000004,0.3531,0.009000000000000001,0.014,-0.043000000000000003
1670356580.319972,-9.421,-0.296,4.465,-0.6507000000000001,-0.3904,0.3471,0.011,0.012,-0.061
1670356580.359972,-9.427,-0.337,4.426,-0.6464000000000001,-0.39080000000000004,0.3477,0.008,0.016,-0.058
1670356580.399972,-9.395,-0.342,4.479,-0.6475000000000001,-0.3905,0.3537,0.0,0.013000000000000001,-0.062
1670356580.439972,-9.370000000000001,-0.321,4.44,-0.6475000000000001,-0.389,0.3559,0.0,0.009000000000000001,-0.053
1670356580.479972,-9.370000000000001,-0.321,4.526,-0.6479,-0.389,0.3677,0.001,0.018000000000000002,-0.049
1670356580.519972,-9.402000000000001,-0.31,4.526,-0.6511,-0.38920000000000005,0.3677,0.003,0.017,-0.057
1670356580.559972,-9.385,-0.32,4.446,-0.6496000000000001,-0.3915,0.36010000000000003,0.011,0.013000000000000001,-0.058
1670356580.599972,-9.371,-0.35100000000000003,4.494,-0.6499,-0.3934,0.3521,0.001,0.016,-0.048
1670356580.639972,-9.387,-0.335,4.4510000000000005,-0.6482,-0.38880000000000003,0.3733,0.0,0.019,-0.049
1670356580.679972,-9.388,-0.303,4.46,-0.6458,-0.3886,0.3501,0.007,0.018000000000000002,-0.056
1670356580.719972,-9.369,-0.312,4.445,-0.6493,-0.3907,0.3483,0.007,0.019,-0.06
1670356580.759972,-9.363,-0.355,4.482,-0.6457,-0.3902,0.3497,-0.008,0.019,-0.049
1670356580.799972,-9.353,-0.34800000000000003,4.5200000000000005,-0.6485000000000001,-0.39080000000000004,0.34440000000000004,-0.006,0.02,-0.041
1670356580.839972,-9.414,-0.244,4.484,-0.648,-0.38930000000000003,0.34740000000000004,0.007,0.021,-0.043000000000000003
1670356580.879972,-9.404,-0.39,4.465,-0.646,-0.3874,0.3502,0.008,0.023,-0.052000000000000005
1670356580.919971,-9.346,-0.294,4.447,-0.6498,-0.38970000000000005,0.3492,0.009000000000000001,0.011,-0.055
1670356580.959971,-9.372,-0.339,4.437,-0.6551,-0.38970000000000005,0.3477,-0.001,0.007,-0.049
1670356580.999971,-9.403,-0.327,4.487,-0.6471,-0.3875,0.34900000000000003,-0.003,0.004,-0.054
1670356581.0399709,-9.422,-0.316,4.513,-0.6524,-0.3909,0.3517,-0.003,0.012,-0.056
1670356581.079971,-9.364,-0.387,4.477,-0.65,-0.3905,0.3497,-0.005,0.015,-0.06
1670356581.119971,-9.368,-0.29,4.527,-0.6507000000000001,-0.3921,0.36100000000000004,0.002,0.014,-0.054
1670356581.159971,-9.406,-0.387,4.493,-0.6471,-0.3894,0.3491,0.003,0.015,-0.05
1670356581.199971,-9.376,-0.335,4.503,-0.649,-0.3906,0.34790000000000004,0.01,0.017,-0.036000000000000004
1670356581.239971,-9.339,-0.317,4.468,-0.648,-0.3894,0.3486,0.014,0.012,-0.043000000000000003
1670356581.279971,-9.382,-0.298,4.457,-0.6516000000000001,-0.389,0.35150000000000003,0.018000000000000002,0.011,-0.052000000000000005
1670356581.319971,-9.39,-0.338,4.533,-0.6503,-0.38920000000000005,0.3477,0.018000000000000002,0.01,-0.047
1670356581.359971,-9.348,-0.358,4.498,-0.6482,-0.38930000000000003,0.34800000000000003,-0.002,0.019,-0.052000000000000005
1670356581.399971,-9.36,-0.332,4.499,-0.6467,-0.391,0.3493,-0.004,0.013000000000000001,-0.048
1670356581.439971,-9.381,-0.34400000000000003,4.515,-0.6523,-0.39030000000000004,0.3496,-0.013000000000000001,0.021,-0.046
1670356581.479971,-9.382,-0.333,4.524,-0.6493,-0.3865,0.3483,-0.007,0.022,-0.048
1670356581.519971,-9.369,-0.335,4.488,-0.6474000000000001,-0.38830000000000003,0.34850000000000003,-0.001,0.015,-0.048
1670356581.559971,-9.379,-0.34400000000000003,4.454,-0.6499,-0.3876,0.3498,0.009000000000000001,0.016,-0.049
1670356581.599971,-9.402000000000001,-0.336,4.527,-0.6491,-0.38830000000000003,0.3476,0.009000000000000001,0.015,-0.051000000000000004
1670356581.639971,-9.385,-0.318,4.534,-0.6483,-0.3889,0.34950000000000003,0.015,0.017,-0.056
1670356581.679971,-9.371,-0.34800000000000003,4.491,-0.6474000000000001,-0.3894,0.3497,0.017,0.01,-0.057
1670356581.719971,-9.349,-0.365,4.473,-0.6496000000000001,-0.3895,0.3498,-0.005,0.012,-0.054
1670356581.759971,-9.458,-0.339,4.53,-0.6493,-0.38970000000000005,0.34650000000000003,0.001,0.026000000000000002,-0.046
1670356581.799971,-9.448,-0.323,4.502,-0.6469,-0.38920000000000005,0.3498,-0.003,0.036000000000000004,-0.053
1670356581.839971,-9.314,-0.304,4.47,-0.6502,-0.3935,0.34800000000000003,0.005,0.024,-0.055
1670356581.879971,-9.334,-0.342,4.477,-0.648,-0.3881,0.3511,0.008,0.012,-0.046
1670356581.919971,-9.409,-0.35000000000000003,4.494,-0.6477,-0.3912,0.3483,0.009000000000000001,0.013000000000000001,-0.053
1670356581.95997,-9.393,-0.323,4.484,-0.6498,-0.39,0.34990000000000004,0.005,0.01,-0.052000000000000005
1670356581.99997,-9.346,-0.393,4.524,-0.6476000000000001,-0.3891,0.3487,0.006,0.01,-0.06
1670356582.03997,-9.294,-0.296,4.514,-0.65,-0.3902,0.34890000000000004,0.006,0.003,-0.045
1670356582.07997,-9.4,-0.384,4.485,-0.6498,-0.38930000000000003,0.3488,0.006,0.02,-0.048
1670356582.11997,-9.397,-0.311,4.539,-0.6464000000000001,-0.38680000000000003,0.34740000000000004,0.001,0.023,-0.05
1670356582.15997,-9.321,-0.328,4.538,-0.649,-0.38830000000000003,0.3504,0.002,0.017,-0.044
1670356582.19997,-9.402000000000001,-0.32,4.508,-0.6492,-0.3886,0.3497,0.006,0.019,-0.052000000000000005
1670356582.23997,-9.385,-0.323,4.487,-0.6481,-0.3885,0.34940000000000004,0.01,0.014,-0.057
1670356582.27997,-9.367,-0.361,4.493,-0.6495000000000001,-0.3922,0.3511,0.005,0.016,-0.061
1670356582.31997,-9.356,-0.328,4.498,-0.6539,-0.38720000000000004,0.3488,0.0,0.012,-0.046
1670356582.35997,-9.4,-0.343,4.527,-0.6477,-0.38920000000000005,0.3506,-0.002,0.029,-0.048
1670356582.39997,-9.378,-0.387,4.51,-0.6455000000000001,-0.3894,0.3501,-0.014,0.049,-0.037
1670356582.43997,-9.362,-0.325,4.546,-0.6551,-0.3916,0.34650000000000003,0.015,0.022,-0.043000000000000003
1670356582.47997,-9.39,-0.316,4.487,-0.649,-0.38920000000000005,0.3481,0.036000000000000004,0.013000000000000001,-0.061
1670356582.51997,-9.359,-0.374,4.442,-0.6485000000000001,-0.3902,0.3493,0.027,0.01,-0.055
1670356582.55997,-9.385,-0.326,4.485,-0.6478,-0.388,0.3468,0.008,0.012,-0.045
1670356582.59997,-9.373,-0.28400000000000003,4.496,-0.6499,-0.3922,0.3498,0.018000000000000002,0.011,-0.054
1670356582.63997,-9.361,-0.341,4.481,-0.6535000000000001,-0.39,0.3388,0.016,0.014,-0.058
1670356582.67997,-9.361,-0.305,4.546,-0.6535000000000001,-0.3894,0.3533,0.003,0.004,-0.05
1670356582.71997,-9.423,-0.305,4.534,-0.6502,-0.3894,0.3533,0.007,0.017,-0.042
1670356582.75997,-9.43,-0.28,4.534,-0.6523,-0.38880000000000003,0.33140000000000003,0.002,0.027,-0.05
1670356582.79997,-9.335,-0.333,4.496,-0.6487,-0.39080000000000004,0.3397,0.009000000000000001,0.02,-0.065
1670356582.83997,-9.339,-0.325,4.5040000000000004,-0.649,-0.39030000000000004,0.34900000000000003,0.003,0.014,-0.059000000000000004
1670356582.87997,-9.375,-0.32,4.502,-0.6499,-0.3886,0.34790000000000004,-0.003,0.016,-0.055
1670356582.91997,-9.396,-0.331,4.531,-0.6477,-0.3881,0.3493,-0.005,0.02,-0.056
1670356582.95997,-9.398,-0.318,4.541,-0.6487,-0.38780000000000003,0.3502,0.0,0.021,-0.063
1670356582.999969,-9.408,-0.356,4.503,-0.6493,-0.3917,0.3502,-0.003,0.016,-0.048
1670356583.039969,-9.402000000000001,-0.279,4.535,-0.6494,-0.3904,0.3523,0.0,0.033,-0.055
1670356583.079969,-9.428,-0.368,4.4670000000000005,-0.6506000000000001,-0.38920000000000005,0.34850000000000003,-0.002,0.026000000000000002,-0.054
1670356583.119969,-9.345,-0.328,4.499,-0.6499,-0.38780000000000003,0.3477,0.004,0.024,-0.049
1670356583.159969,-9.376,-0.304,4.496,-0.648,-0.3875,0.3502,0.007,0.013000000000000001,-0.045
1670356583.199969,-9.379,-0.33,4.48,-0.6623,-0.3932,0.35400000000000004,0.01,0.015,-0.058
1670356583.239969,-9.378,-0.335,4.507,-0.651,-0.3894,0.3466,0.007,0.013000000000000001,-0.062
1670356583.279969,-9.372,-0.342,4.508,-0.6521,-0.3905,0.3524,0.0,0.012,-0.056
1670356583.319969,-9.371,-0.337,4.515,-0.6524,-0.38930000000000003,0.3533,0.005,0.013000000000000001,-0.049
1670356583.359969,-9.379,-0.335,4.496,-0.651,-0.3905,0.35300000000000004,-0.001,0.021,-0.046
1670356583.399969,-9.371,-0.337,4.511,-0.6499,-0.39030000000000004,0.3511,0.001,0.02,-0.044
1670356583.439969,-9.366,-0.339,4.524,-0.6477,-0.3899,0.3497,0.006,0.019,-0.052000000000000005
1670356583.479969,-9.378,-0.34700000000000003,4.516,-0.6503,-0.3901,0.3468,0.005,0.017,-0.046
1670356583.519969,-9.388,-0.316,4.501,-0.6494,-0.388,0.34790000000000004,0.009000000000000001,0.014,-0.05
1670356583.559969,-9.36,-0.337,4.522,-0.6477,-0.38970000000000005,0.3502,0.008,0.016,-0.055
1670356583.599969,-9.377,-0.371,4.506,-0.65,-0.3885,0.3502,0.0,0.016,-0.049
1670356583.639969,-9.422,-0.332,4.501,-0.651,-0.3886,0.3473,-0.001,0.021,-0.041
1670356583.679969,-9.458,-0.268,4.5360000000000005,-0.6507000000000001,-0.39030000000000004,0.3471,0.009000000000000001,0.024,-0.055
1670356583.719969,-9.383000000000001,-0.341,4.503,-0.6509,-0.3896,0.3477,0.007,0.024,-0.062
1670356583.759969,-9.342,-0.366,4.4590000000000005,-0.6512,-0.3915,0.34890000000000004,0.003,0.017,-0.045
1670356583.799969,-9.378,-0.332,4.469,-0.648,-0.39,0.3513,-0.006,0.015,-0.05
1670356583.839969,-9.39,-0.323,4.5,-0.6491,-0.3874,0.35000000000000003,0.001,0.009000000000000001,-0.055
1670356583.879969,-9.387,-0.34400000000000003,4.522,-0.6501,-0.3894,0.3483,0.005,0.012,-0.057
1670356583.9199688,-9.377,-0.386,4.527,-0.6489,-0.3899,0.34690000000000004,0.001,0.016,-0.051000000000000004
1670356583.959969,-9.409,-0.307,4.539,-0.6488,-0.388,0.34750000000000003,0.0,0.027,-0.046
1670356583.999969,-9.408,-0.356,4.524,-0.6472,-0.39,0.34550000000000003,-0.002,0.031,-0.039
1670356584.039968,-9.34,-0.329,4.469,-0.6512,-0.389,0.3502,0.006,0.024,-0.041
1670356584.079968,-9.348,-0.301,4.488,-0.6483,-0.38970000000000005,0.3521,0.01,0.021,-0.04
1670356584.119968,-9.393,-0.315,4.522,-0.6499,-0.3907,0.3466,0.012,0.019,-0.057
1670356584.159968,-9.394,-0.333,4.473,-0.6491,-0.3901,0.3504,0.009000000000000001,0.012,-0.057
1670356584.199968,-9.404,-0.34600000000000003,4.506,-0.6495000000000001,-0.39280000000000004,0.35100000000000003,-0.001,0.014,-0.051000000000000004
1670356584.239968,-9.402000000000001,-0.313,4.464,-0.6491,-0.39080000000000004,0.34950000000000003,-0.008,0.016,-0.056
1670356584.279968,-9.373,-0.339,4.527,-0.6504,-0.38720000000000004,0.35000000000000003,0.0,0.019,-0.055
1670356584.319968,-9.402000000000001,-0.339,4.516,-0.651,-0.39,0.34940000000000004,0.002,0.02,-0.061
1670356584.359968,-9.358,-0.36,4.515,-0.6535000000000001,-0.389,0.3482,0.0,0.011,-0.055
1670356584.399968,-9.376,-0.359,4.554,-0.6491,-0.38670000000000004,0.3483,0.005,0.011,-0.061
1670356584.439968,-9.387,-0.341,4.531,-0.6499,-0.38520000000000004,0.3503,0.006,0.007,-0.056
1670356584.479968,-9.364,-0.34900000000000003,4.487,-0.6523,-0.3917,0.3458,0.005,0.018000000000000002,-0.06
1670356584.519968,-9.368,-0.398,4.545,-0.649,-0.39030000000000004,0.3477,0.002,0.024,-0.054
1670356584.559968,-9.402000000000001,-0.354,4.537,-0.6495000000000001,-0.38720000000000004,0.3482,-0.002,0.021,-0.051000000000000004
1670356584.599968,-9.452,-0.28600000000000003,4.527,-0.6498,-0.3891,0.34800000000000003,0.006,0.02,-0.038
1670356584.639968,-9.357,-0.362,4.406,-0.6508,-0.39,0.34900000000000003,0.014,0.032,-0.052000000000000005
1670356584.679968,-9.298,-0.35000000000000003,4.431,-0.6499,-0.3899,0.3483,0.006,0.027,-0.053
1670356584.719968,-9.370000000000001,-0.329,4.473,-0.6485000000000001,-0.3902,0.34890000000000004,-0.001,0.01,-0.049
1670356584.759968,-9.412,-0.34800000000000003,4.51,-0.65,-0.3875,0.3507,0.0,0.008,-0.049
1670356584.799968,-9.404,-0.35000000000000003,4.481,-0.6476000000000001,-0.3889,0.34940000000000004,0.0,0.007,-0.06
1670356584.839968,-9.389,-0.396,4.51,-0.6501,-0.3886,0.34800000000000003,-0.004,0.012,-0.055
1670356584.879968,-9.370000000000001,-0.314,4.53,-0.6493,-0.38680000000000003,0.36060000000000003,0.007,0.003,-0.05
1670356584.919968,-9.419,-0.39,4.515,-0.6516000000000001,-0.38920000000000005,0.35050000000000003,0.003,0.019,-0.049
1670356584.9599679,-9.419,-0.39,4.511,-0.6516000000000001,-0.38920000000000005,0.3639,0.006,0.027,-0.046
1670356584.999968,-9.352,-0.35000000000000003,4.511,-0.6524,-0.38830000000000003,0.3639,0.013000000000000001,0.015,-0.043000000000000003
1670356585.039968,-9.348,-0.334,4.489,-0.6545000000000001,-0.3921,0.3507,0.01,0.013000000000000001,-0.054
1670356585.079967,-9.399000000000001,-0.34900000000000003,4.537,-0.6521,-0.3886,0.3532,0.004,0.011,-0.053
1670356585.119967,-9.378,-0.359,4.518,-0.6647000000000001,-0.3905,0.3563,0.0,0.008,-0.048
1670356585.159967,-9.373,-0.376,4.521,-0.6532,-0.3899,0.3493,-0.003,0.014,-0.058
1670356585.199967,-9.397,-0.359,4.521,-0.654,-0.3894,0.35100000000000003,-0.002,0.016,-0.055
1670356585.239967,-9.361,-0.35000000000000003,4.503,-0.6525000000000001,-0.38980000000000004,0.3523,-0.009000000000000001,0.023,-0.05
1670356585.279967,-9.378,-0.364,4.527,-0.6578,-0.3955,0.35550000000000004,-0.001,0.019,-0.044
1670356585.319967,-9.342,-0.361,4.479,-0.6482,-0.38720000000000004,0.3513,0.007,0.01,-0.047
1670356585.359967,-9.363,-0.357,4.503,-0.6554,-0.3911,0.3549,0.012,0.014,-0.047
1670356585.399967,-9.388,-0.35000000000000003,4.526,-0.6497,-0.3899,0.35050000000000003,0.015,0.018000000000000002,-0.055
1670356585.439967,-9.361,-0.374,4.519,-0.6502,-0.3886,0.34940000000000004,0.009000000000000001,0.013000000000000001,-0.051000000000000004
1670356585.479967,-9.361,-0.389,4.517,-0.6495000000000001,-0.38870000000000005,0.35150000000000003,0.0,0.02,-0.051000000000000004
1670356585.519967,-9.405,-0.328,4.518,-0.6488,-0.3927,0.34900000000000003,0.005,0.024,-0.047
1670356585.559967,-9.394,-0.334,4.5360000000000005,-0.6499,-0.3894,0.3482,0.012,0.033,-0.045
1670356585.599967,-9.309000000000001,-0.358,4.464,-0.6494,-0.3886,0.34950000000000003,0.011,0.021,-0.044
1670356585.639967,-9.326,-0.333,4.507,-0.6501,-0.39030000000000004,0.3478,0.008,0.015,-0.052000000000000005
1670356585.679967,-9.392,-0.34400000000000003,4.5280000000000005,-0.6487,-0.39030000000000004,0.3496,0.009000000000000001,0.012,-0.05
1670356585.719967,-9.379,-0.359,4.5440000000000005,-0.6502,-0.3871,0.3488,0.008,0.011,-0.053
1670356585.7599669,-9.359,-0.317,4.567,-0.6505000000000001,-0.3886,0.3481,0.004,0.013000000000000001,-0.059000000000000004
1670356585.799967,-9.369,-0.34800000000000003,4.526,-0.6502,-0.3895,0.35000000000000003,0.005,0.018000000000000002,-0.044
1670356585.839967,-9.402000000000001,-0.322,4.5040000000000004,-0.6501,-0.3885,0.3487,0.016,0.021,-0.041
1670356585.879967,-9.417,-0.326,4.508,-0.6504,-0.38920000000000005,0.34700000000000003,0.008,0.03,-0.047
1670356585.919967,-9.318,-0.319,4.518,-0.6509,-0.391,0.3496,0.009000000000000001,0.027,-0.04
1670356585.959967,-9.367,-0.304,4.486,-0.6452,-0.38920000000000005,0.3519,0.017,0.013000000000000001,-0.041
1670356585.9999669,-9.396,-0.305,4.47,-0.6493,-0.3895,0.3476,0.013000000000000001,0.016,-0.052000000000000005
1670356586.039967,-9.389,-0.333,4.51,-0.6501,-0.3904,0.34840000000000004,0.004,0.011,-0.057
1670356586.079967,-9.367,-0.328,4.48,-0.6469,-0.3905,0.3502,-0.005,0.014,-0.056
1670356586.119967,-9.364,-0.332,4.494,-0.6517000000000001,-0.38980000000000004,0.3476,-0.001,0.011,-0.051000000000000004
1670356586.159967,-9.386000000000001,-0.333,4.49,-0.6481,-0.38970000000000005,0.34850000000000003,0.0,0.023,-0.055
1670356586.199966,-9.384,-0.34900000000000003,4.513,-0.6485000000000001,-0.3915,0.34940000000000004,0.008,0.024,-0.056
1670356586.239966,-9.369,-0.342,4.502,-0.6479,-0.39,0.3507,0.004,0.019,-0.054
1670356586.279966,-9.354000000000001,-0.34500000000000003,4.49,-0.6482,-0.3886,0.34850000000000003,0.002,0.016,-0.057
1670356586.319966,-9.406,-0.308,4.518,-0.657,-0.3879,0.3482,0.007,0.022,-0.055
1670356586.359966,-9.367,-0.341,4.525,-0.6546000000000001,-0.3911,0.3477,0.015,0.016,-0.056
1670356586.399966,-9.370000000000001,-0.401,4.525,-0.6476000000000001,-0.3891,0.3473,0.004,0.017,-0.055
1670356586.439966,-9.397,-0.331,4.5280000000000005,-0.6468,-0.38880000000000003,0.3513,0.005,0.016,-0.048
1670356586.479966,-9.424,-0.267,4.485,-0.6507000000000001,-0.39,0.3538,0.016,0.017,-0.042
1670356586.519966,-9.370000000000001,-0.362,4.485,-0.6496000000000001,-0.3925,0.3493,0.02,0.029,-0.058
1670356586.5599658,-9.336,-0.333,4.441,-0.65,-0.38770000000000004,0.3504,0.017,0.03,-0.063
1670356586.599966,-9.368,-0.321,4.486,-0.6471,-0.3885,0.3468,0.001,0.015,-0.051000000000000004
1670356586.639966,-9.376,-0.334,4.482,-0.6498,-0.3906,0.3487,0.005,0.007,-0.057
1670356586.679966,-9.399000000000001,-0.33,4.5200000000000005,-0.6505000000000001,-0.3906,0.3491,0.014,0.006,-0.058
1670356586.719966,-9.379,-0.40800000000000003,4.521,-0.6516000000000001,-0.3927,0.35000000000000003,0.005,0.004,-0.065
1670356586.759966,-9.367,-0.299,4.496,-0.6496000000000001,-0.38970000000000005,0.3506,0.014,0.006,-0.055
1670356586.7999659,-9.417,-0.4,4.5280000000000005,-0.6493,-0.38870000000000005,0.3512,0.007,0.015,-0.046
1670356586.839966,-9.376,-0.331,4.503,-0.65,-0.3875,0.35100000000000003,0.01,0.021,-0.054
1670356586.879966,-9.345,-0.335,4.513,-0.6508,-0.3919,0.3476,0.008,0.016,-0.043000000000000003
1670356586.919966,-9.378,-0.34900000000000003,4.5360000000000005,-0.6512,-0.389,0.34850000000000003,0.01,0.017,-0.051000000000000004
1670356586.959966,-9.370000000000001,-0.339,4.497,-0.6504,-0.38970000000000005,0.34940000000000004,0.01,0.02,-0.06
1670356586.999966,-9.375,-0.368,4.516,-0.6506000000000001,-0.3865,0.34850000000000003,0.001,0.014,-0.056
1670356587.0399659,-9.384,-0.339,4.502,-0.6497,-0.38720000000000004,0.3496,-0.003,0.018000000000000002,-0.055
1670356587.079966,-9.375,-0.343,4.5120000000000005,-0.6504,-0.38820000000000005,0.3476,0.0,0.014,-0.045
1670356587.119966,-9.381,-0.338,4.485,-0.6539,-0.38880000000000003,0.36250000000000004,-0.003,0.016,-0.051000000000000004
1670356587.159966,-9.349,-0.34400000000000003,4.471,-0.664,-0.3919,0.34790000000000004,0.014,0.014,-0.053
1670356587.199966,-9.349,-0.342,4.505,-0.664,-0.3919,0.3501,0.014,0.009000000000000001,-0.051000000000000004
1670356587.239965,-9.358,-0.342,4.505,-0.6497,-0.391,0.3501,0.011,0.01,-0.048
1670356587.279965,-9.381,-0.333,4.477,-0.6523,-0.39,0.35100000000000003,0.009000000000000001,0.01,-0.053
1670356587.319965,-9.352,-0.35100000000000003,4.531,-0.653,-0.39030000000000004,0.33480000000000004,0.004,0.018000000000000002,-0.048
1670356587.3599648,-9.365,-0.386,4.542,-0.6561,-0.3942,0.3846,0.004,0.017,-0.042
1670356587.399965,-9.349,-0.358,4.539,-0.6549,-0.3899,0.3508,0.003,0.024,-0.043000000000000003
1670356587.439965,-9.366,-0.23700000000000002,4.507,-0.6502,-0.38880000000000003,0.35050000000000003,0.019,0.027,-0.047
1670356587.479965,-9.388,-0.388,4.513,-0.6485000000000001,-0.39030000000000004,0.3514,0.017,0.031,-0.06
1670356587.519965,-9.347,-0.306,4.457,-0.6488,-0.3895,0.3526,0.007,0.03,-0.052000000000000005
1670356587.559965,-9.36,-0.34400000000000003,4.464,-0.6499,-0.3891,0.3478,-0.001,0.02,-0.045
1670356587.5999649,-9.393,-0.319,4.472,-0.6482,-0.3907,0.3486,-0.004,0.015,-0.056
1670356587.639965,-9.396,-0.299,4.542,-0.6501,-0.38920000000000005,0.3504,0.005,0.011,-0.059000000000000004
1670356587.679965,-9.338000000000001,-0.396,4.53,-0.6517000000000001,-0.38920000000000005,0.34800000000000003,-0.003,0.006,-0.065
1670356587.719965,-9.318,-0.307,4.473,-0.6502,-0.3901,0.34800000000000003,-0.001,0.013000000000000001,-0.06
1670356587.759965,-9.375,-0.396,4.5440000000000005,-0.6501,-0.3874,0.3514,0.005,0.012,-0.055
1670356587.799965,-9.367,-0.322,4.508,-0.6516000000000001,-0.38930000000000003,0.34650000000000003,0.014,0.025,-0.048
1670356587.8399649,-9.361,-0.309,4.533,-0.6508,-0.39030000000000004,0.3516,0.012,0.02,-0.049
1670356587.879965,-9.382,-0.341,4.515,-0.6505000000000001,-0.38780000000000003,0.3491,0.014,0.018000000000000002,-0.058
1670356587.919965,-9.387,-0.357,4.494,-0.6482,-0.3895,0.3512,0.007,0.015,-0.052000000000000005
1670356587.959965,-9.364,-0.35100000000000003,4.499,-0.6477,-0.3917,0.3457,-0.008,0.014,-0.058
1670356587.999965,-9.339,-0.342,4.491,-0.6487,-0.3915,0.3521,-0.006,0.011,-0.058
1670356588.039965,-9.392,-0.357,4.491,-0.6497,-0.3902,0.3496,-0.007,0.016,-0.05
1670356588.0799649,-9.378,-0.352,4.53,-0.6513,-0.3902,0.3466,-0.005,0.016,-0.047
1670356588.119965,-9.367,-0.34800000000000003,4.517,-0.6487,-0.3894,0.3498,-0.001,0.015,-0.049
1670356588.159965,-9.333,-0.355,4.508,-0.651,-0.38970000000000005,0.3476,0.004,0.011,-0.056
1670356588.199965,-9.394,-0.335,4.5360000000000005,-0.6467,-0.39,0.34900000000000003,0.011,0.01,-0.058
1670356588.239965,-9.377,-0.376,4.542,-0.6482,-0.3884,0.34800000000000003,0.01,0.015,-0.061
1670356588.279964,-9.36,-0.39,4.54,-0.6493,-0.38880000000000003,0.35000000000000003,-0.003,0.016,-0.049
1670356588.319964,-9.421,-0.34400000000000003,4.5600000000000005,-0.6508,-0.38930000000000003,0.35100000000000003,0.0,0.015,-0.052000000000000005
1670356588.359964,-9.445,-0.341,4.523,-0.6513,-0.3906,0.35350000000000004,0.002,0.018000000000000002,-0.048
1670356588.3999639,-9.327,-0.359,4.483,-0.6548,-0.39080000000000004,0.34990000000000004,-0.001,0.024,-0.052000000000000005
1670356588.439964,-9.308,-0.34,4.441,-0.6498,-0.3889,0.3496,0.003,0.017,-0.053
1670356588.479964,-9.372,-0.343,4.513,-0.6473,-0.3871,0.3498,-0.005,0.011,-0.052000000000000005
1670356588.519964,-9.394,-0.356,4.518,-0.6481,-0.38770000000000004,0.34940000000000004,0.005,0.017,-0.069
1670356588.559964,-9.388,-0.357,4.546,-0.6491,-0.38820000000000005,0.3502,-0.011,0.014,-0.067
1670356588.599964,-9.381,-0.385,4.524,-0.6507000000000001,-0.3865,0.34900000000000003,-0.029,0.019,-0.067
1670356588.6399639,-9.379,-0.34500000000000003,4.548,-0.6502,-0.388,0.3498,-0.007,0.017,-0.064
1670356588.679964,-9.413,-0.427,4.515,-0.6504,-0.38870000000000005,0.3497,-0.01,0.032,-0.064
1670356588.719964,-9.316,-0.402,4.521,-0.6499,-0.3884,0.3529,-0.007,0.025,-0.046
1670356588.759964,-9.338000000000001,-0.38,4.5040000000000004,-0.6485000000000001,-0.3869,0.35000000000000003,0.002,0.016,-0.045
1670356588.799964,-9.389,-0.369,4.49,-0.6508,-0.388,0.3482,0.014,0.012,-0.063
1670356588.839964,-9.348,-0.428,4.518,-0.6497,-0.3891,0.34640000000000004,0.014,0.01,-0.059000000000000004
1670356588.8799639,-9.382,-0.445,4.539,-0.6491,-0.38630000000000003,0.3482,-0.001,0.004,-0.052000000000000005
1670356588.919964,-9.378,-0.41300000000000003,4.484,-0.6502,-0.3874,0.35050000000000003,-0.004,0.012,-0.053
1670356588.959964,-9.387,-0.40700000000000003,4.54,-0.6481,-0.3874,0.3488,-0.002,0.02,-0.052000000000000005
1670356588.999964,-9.355,-0.419,4.521,-0.6476000000000001,-0.38670000000000004,0.34940000000000004,0.0,0.023,-0.048
1670356589.039964,-9.355,-0.403,4.558,-0.6502,-0.38730000000000003,0.3509,0.003,0.018000000000000002,-0.052000000000000005
1670356589.079964,-9.348,-0.39,4.518,-0.6493,-0.38630000000000003,0.3488,0.01,0.01,-0.046
1670356589.119964,-9.355,-0.41100000000000003,4.539,-0.6487,-0.3866,0.3518,0.011,0.01,-0.05
1670356589.159964,-9.305,-0.41500000000000004,4.543,-0.6501,-0.38630000000000003,0.3483,0.009000000000000001,0.009000000000000001,-0.043000000000000003
1670356589.199964,-9.44,-0.404,4.554,-0.6494,-0.3889,0.3507,0.014,0.006,-0.053
1670356589.239964,-9.432,-0.368,4.5440000000000005,-0.6471,-0.3864,0.3466,0.018000000000000002,0.014,-0.043000000000000003
1670356589.279964,-9.32,-0.365,4.521,-0.6507000000000001,-0.388,0.34840000000000004,0.006,0.023,-0.045
1670356589.319963,-9.336,-0.39,4.497,-0.6509,-0.38820000000000005,0.3512,0.01,0.025,-0.045
1670356589.359963,-9.397,-0.387,4.507,-0.6515000000000001,-0.38880000000000003,0.35600000000000004,0.009000000000000001,0.02,-0.049
1670356589.399963,-9.367,-0.368,4.542,-0.6512,-0.3869,0.34790000000000004,0.0,0.01,-0.045
1670356589.4399629,-9.367,-0.402,4.522,-0.6512,-0.38870000000000005,0.3411,0.006,0.013000000000000001,-0.053
1670356589.479963,-9.31,-0.402,4.539,-0.6526000000000001,-0.38870000000000005,0.3411,0.008,0.007,-0.056
1670356589.519963,-9.32,-0.366,4.539,-0.6487,-0.387,0.35650000000000004,0.01,0.013000000000000001,-0.041
1670356589.559963,-9.406,-0.446,4.494,-0.657,-0.3921,0.3397,0.006,0.025,-0.044
1670356589.599963,-9.36,-0.374,4.532,-0.6539,-0.38880000000000003,0.3554,0.018000000000000002,0.018000000000000002,-0.042
1670356589.639963,-9.309000000000001,-0.354,4.522,-0.6507000000000001,-0.3886,0.3561,0.012,0.014,-0.043000000000000003
1670356589.6799629,-9.385,-0.362,4.517,-0.6501,-0.3869,0.3491,0.016,0.016,-0.052000000000000005
1670356589.719963,-9.4,-0.372,4.522,-0.6462,-0.3876,0.3482,0.006,0.016,-0.062
1670356589.759963,-9.354000000000001,-0.396,4.502,-0.6479,-0.38680000000000003,0.3476,-0.003,0.011,-0.052000000000000005
1670356589.799963,-9.36,-0.36,4.493,-0.648,-0.3871,0.34890000000000004,-0.001,0.013000000000000001,-0.049
1670356589.839963,-9.379,-0.393,4.521,-0.6504,-0.3881,0.34750000000000003,0.009000000000000001,0.015,-0.048
1670356589.879963,-9.362,-0.384,4.53,-0.6493,-0.38970000000000005,0.35050000000000003,0.008,0.015,-0.049
1670356589.919963,-9.365,-0.399,4.534,-0.6507000000000001,-0.3886,0.3507,0.009000000000000001,0.018000000000000002,-0.051000000000000004
1670356589.959963,-9.362,-0.386,4.516,-0.6498,-0.38730000000000003,0.3488,0.009000000000000001,0.016,-0.056
1670356589.999963,-9.354000000000001,-0.365,4.522,-0.6474000000000001,-0.3881,0.3508,0.005,0.012,-0.051000000000000004
1670356590.039963,-9.339,-0.389,4.5200000000000005,-0.6514,-0.38780000000000003,0.3532,0.01,0.005,-0.052000000000000005
1670356590.079963,-9.357,-0.396,4.575,-0.6561,-0.3932,0.3532,0.006,0.01,-0.052000000000000005
1670356590.119963,-9.335,-0.354,4.559,-0.6502,-0.3895,0.35200000000000004,0.006,0.013000000000000001,-0.049
1670356590.159963,-9.39,-0.323,4.521,-0.6585000000000001,-0.3875,0.3536,0.01,0.015,-0.045
1670356590.199963,-9.363,-0.41000000000000003,4.496,-0.6497,-0.38920000000000005,0.3504,0.012,0.027,-0.05
1670356590.239963,-9.32,-0.325,4.511,-0.6492,-0.3886,0.34850000000000003,0.009000000000000001,0.018000000000000002,-0.056
1670356590.279963,-9.333,-0.373,4.461,-0.6488,-0.388,0.3524,0.005,0.013000000000000001,-0.05
1670356590.319963,-9.391,-0.38,4.53,-0.6507000000000001,-0.38930000000000003,0.34800000000000003,0.003,0.011,-0.049
1670356590.359962,-9.388,-0.357,4.564,-0.6505000000000001,-0.3891,0.34990000000000004,0.004,0.011,-0.054
1670356590.399962,-9.332,-0.422,4.585,-0.6527000000000001,-0.3881,0.35450000000000004,0.009000000000000001,0.006,-0.057
1670356590.439962,-9.317,-0.323,4.556,-0.6507000000000001,-0.3871,0.3521,0.012,0.021,-0.048
1670356590.4799619,-9.367,-0.439,4.515,-0.6502,-0.38670000000000004,0.3509,0.003,0.021,-0.041
1670356590.519962,-9.367,-0.342,4.5600000000000005,-0.6498,-0.3879,0.3487,0.01,0.025,-0.046
1670356590.559962,-9.326,-0.34,4.524,-0.6519,-0.3911,0.3536,0.018000000000000002,0.016,-0.046
1670356590.599962,-9.355,-0.337,4.517,-0.65,-0.389,0.3491,0.016,0.013000000000000001,-0.054
1670356590.639962,-9.364,-0.34500000000000003,4.525,-0.649,-0.38770000000000004,0.3488,0.015,0.009000000000000001,-0.058
1670356590.679962,-9.361,-0.375,4.53,-0.6487,-0.3855,0.34900000000000003,-0.004,0.013000000000000001,-0.055
1670356590.719962,-9.342,-0.338,4.547,-0.6508,-0.38880000000000003,0.3471,-0.005,0.014,-0.047
1670356590.759962,-9.341000000000001,-0.366,4.515,-0.6495000000000001,-0.3895,0.35300000000000004,0.001,0.02,-0.055
1670356590.799962,-9.364,-0.358,4.564,-0.6492,-0.3875,0.3526,0.004,0.019,-0.049
1670356590.839962,-9.361,-0.35000000000000003,4.548,-0.6485000000000001,-0.3891,0.34790000000000004,0.001,0.015,-0.052000000000000005
1670356590.879962,-9.354000000000001,-0.372,4.546,-0.6483,-0.38920000000000005,0.3518,0.001,0.014,-0.054
1670356590.919962,-9.355,-0.358,4.558,-0.6505000000000001,-0.3839,0.3504,0.005,0.009000000000000001,-0.052000000000000005
1670356590.959962,-9.367,-0.358,4.561,-0.6517000000000001,-0.38880000000000003,0.3498,0.004,0.012,-0.047
1670356590.999962,-9.364,-0.373,4.569,-0.6505000000000001,-0.39,0.3513,0.011,0.017,-0.051000000000000004
1670356591.039962,-9.346,-0.371,4.59,-0.6494,-0.3864,0.3501,0.008,0.024,-0.056
1670356591.079962,-9.293000000000001,-0.399,4.572,-0.6504,-0.3881,0.3483,0.003,0.014,-0.042
1670356591.119962,-9.354000000000001,-0.34,4.553,-0.6511,-0.3886,0.35150000000000003,-0.007,0.022,-0.04
1670356591.159962,-9.436,-0.34800000000000003,4.5920000000000005,-0.6491,-0.387,0.3519,0.02,0.037,-0.048
1670356591.199962,-9.321,-0.318,4.502,-0.6511,-0.3879,0.3501,0.031,0.032,-0.08
1670356591.239962,-9.306000000000001,-0.423,4.498,-0.6497,-0.3889,0.35100000000000003,0.004,0.006,-0.057
1670356591.279962,-9.349,-0.371,4.555,-0.6475000000000001,-0.39,0.34990000000000004,-0.021,0.015,-0.028
1670356591.319962,-9.364,-0.312,4.563,-0.6487,-0.3894,0.34990000000000004,-0.001,0.011,-0.057
1670356591.359962,-9.336,-0.36,4.548,-0.6489,-0.38720000000000004,0.35050000000000003,0.019,0.013000000000000001,-0.063
1670356591.399961,-9.3,-0.422,4.588,-0.6537000000000001,-0.389,0.3549,-0.003,0.021,-0.052000000000000005
1670356591.439961,-9.357,-0.367,4.532,-0.6522,-0.3926,0.3516,0.0,0.019,-0.046
1670356591.479961,-9.357,-0.325,4.588,-0.6502,-0.39130000000000004,0.3507,-0.003,0.027,-0.051000000000000004
1670356591.5199609,-9.32,-0.366,4.506,-0.6515000000000001,-0.38970000000000005,0.3498,0.001,0.025,-0.05
1670356591.559961,-9.34,-0.329,4.517,-0.6501,-0.3894,0.3496,0.001,0.018000000000000002,-0.041
1670356591.599961,-9.36,-0.35100000000000003,4.551,-0.6471,-0.3894,0.34940000000000004,0.007,0.017,-0.054
1670356591.639961,-9.34,-0.371,4.5120000000000005,-0.6477,-0.3885,0.3466,0.008,0.02,-0.059000000000000004
1670356591.679961,-9.349,-0.381,4.57,-0.651,-0.3886,0.37560000000000004,0.001,0.019,-0.052000000000000005
1670356591.719961,-9.349,-0.381,4.526,-0.651,-0.3886,0.3476,-0.005,0.018000000000000002,-0.05
1670356591.759961,-9.34,-0.35100000000000003,4.526,-0.6522,-0.3902,0.3476,0.014,0.017,-0.055
1670356591.799961,-9.358,-0.365,4.541,-0.651,-0.38820000000000005,0.37070000000000003,0.015,0.016,-0.054
1670356591.839961,-9.348,-0.369,4.559,-0.6502,-0.38930000000000003,0.3509,0.012,0.008,-0.047
1670356591.799961,-9.326,-0.375,4.53,-0.6516000000000001,-0.3911,0.37220000000000003,0.007,0.007,-0.052000000000000005
1670356591.839961,-9.358,-0.353,4.579,-0.6537000000000001,-0.3896,0.3418,0.011,0.009000000000000001,-0.056
1670356591.879961,-9.348,-0.359,4.542,-0.649,-0.387,0.3512,0.01,0.016,-0.044
1670356591.919961,-9.342,-0.353,4.534,-0.651,-0.38880000000000003,0.3514,0.007,0.013000000000000001,-0.046
1670356591.959961,-9.344,-0.339,4.561,-0.6483,-0.38780000000000003,0.35450000000000004,0.012,0.019,-0.052000000000000005
1670356591.999961,-9.336,-0.381,4.567,-0.651,-0.38780000000000003,0.3513,0.0,0.018000000000000002,-0.053
1670356592.039961,-9.325000000000001,-0.381,4.5520000000000005,-0.649,-0.3886,0.35050000000000003,0.001,0.016,-0.047
1670356592.079961,-9.39,-0.308,4.564,-0.6618,-0.39430000000000004,0.3608,0.009000000000000001,0.015,-0.04
1670356592.119961,-9.363,-0.42,4.5280000000000005,-0.6516000000000001,-0.3886,0.3537,0.003,0.023,-0.058
1670356592.159961,-9.28,-0.322,4.543,-0.6614,-0.39,0.3532,0.008,0.014,-0.052000000000000005
1670356592.199961,-9.349,-0.368,4.51,-0.649,-0.3886,0.3541,-0.002,0.01,-0.051000000000000004
1670356592.239961,-9.361,-0.365,4.535,-0.6541,-0.38970000000000005,0.3562,0.002,0.012,-0.054
1670356592.279961,-9.361,-0.362,4.582,-0.6499,-0.3889,0.3504,-0.004,0.019,-0.053
1670356592.319961,-9.274000000000001,-0.41100000000000003,4.564,-0.6557000000000001,-0.3891,0.3502,0.0,0.005,-0.063
1670356592.359961,-9.273,-0.34500000000000003,4.609,-0.6544,-0.38830000000000003,0.3522,0.01,0.013000000000000001,-0.053
1670356592.399961,-9.365,-0.45,4.594,-0.649,-0.3896,0.3512,0.003,0.021,-0.049
1670356592.43996,-9.319,-0.341,4.5920000000000005,-0.6506000000000001,-0.3871,0.3512,0.005,0.018000000000000002,-0.043000000000000003
1670356592.47996,-9.304,-0.34400000000000003,4.569,-0.6511,-0.3889,0.3529,0.01,0.015,-0.047
1670356592.51996,-9.344,-0.354,4.543,-0.6493,-0.3894,0.3547,0.023,0.014,-0.054
1670356592.55996,-9.354000000000001,-0.386,4.551,-0.6516000000000001,-0.3885,0.3522,0.013000000000000001,0.012,-0.057
1670356592.59996,-9.352,-0.391,4.5840000000000005,-0.6497,-0.3904,0.3532,-0.005,0.012,-0.051000000000000004
1670356592.63996,-9.338000000000001,-0.373,4.54,-0.6498,-0.3885,0.3511,-0.003,0.015,-0.051000000000000004
1670356592.67996,-9.36,-0.385,4.563,-0.6492,-0.3895,0.34900000000000003,0.0,0.022,-0.051000000000000004
1670356592.71996,-9.336,-0.369,4.561,-0.6483,-0.3889,0.3517,0.007,0.014,-0.047
1670356592.75996,-9.312,-0.364,4.57,-0.6512,-0.39,0.3506,0.004,0.017,-0.054
1670356592.79996,-9.358,-0.38,4.557,-0.6484,-0.3889,0.35150000000000003,0.01,0.02,-0.057
1670356592.83996,-9.357,-0.359,4.556,-0.651,-0.3895,0.34990000000000004,0.012,0.012,-0.047
1670356592.87996,-9.354000000000001,-0.354,4.589,-0.6508,-0.387,0.34990000000000004,0.014,0.013000000000000001,-0.049
1670356592.91996,-9.324,-0.41300000000000003,4.55,-0.6488,-0.38720000000000004,0.3516,0.001,0.018000000000000002,-0.044
1670356592.95996,-9.367,-0.359,4.615,-0.649,-0.3886,0.35500000000000004,0.003,0.024,-0.048
1670356592.99996,-9.4,-0.31,4.558,-0.6532,-0.3891,0.35150000000000003,0.009000000000000001,0.024,-0.045
1670356593.03996,-9.295,-0.36,4.559,-0.6491,-0.38780000000000003,0.3488,0.015,0.027,-0.052000000000000005
1670356593.07996,-9.311,-0.34900000000000003,4.518,-0.6479,-0.38880000000000003,0.3527,0.012,0.024,-0.059000000000000004
1670356593.11996,-9.381,-0.373,4.542,-0.6519,-0.3929,0.35900000000000004,0.01,0.021,-0.049
1670356593.15996,-9.359,-0.356,4.615,-0.6493,-0.3889,0.3506,0.0,0.014,-0.053
1670356593.19996,-9.305,-0.343,4.57,-0.6491,-0.39080000000000004,0.3507,0.003,0.018000000000000002,-0.058
1670356593.23996,-9.378,-0.34900000000000003,4.553,-0.6482,-0.3894,0.3493,0.001,0.017,-0.056
1670356593.27996,-9.389,-0.34,4.564,-0.6491,-0.3909,0.3513,0.011,0.024,-0.05
1670356593.31996,-9.385,-0.356,4.557,-0.6494,-0.3899,0.3526,0.004,0.024,-0.049
1670356593.35996,-9.326,-0.34900000000000003,4.532,-0.6551,-0.3914,0.3519,0.011,0.024,-0.046
1670356593.39996,-9.346,-0.331,4.533,-0.6498,-0.3899,0.3487,0.007,0.019,-0.047
1670356593.43996,-9.332,-0.34500000000000003,4.5520000000000005,-0.6477,-0.39030000000000004,0.3498,0.014,0.018000000000000002,-0.057
1670356593.479959,-9.34,-0.391,4.505,-0.6483,-0.3889,0.35150000000000003,0.006,0.022,-0.063
1670356593.519959,-9.353,-0.363,4.586,-0.6516000000000001,-0.3891,0.3512,-0.008,0.014,-0.053
1670356593.559959,-9.335,-0.34500000000000003,4.554,-0.6497,-0.3896,0.3498,-0.003,0.013000000000000001,-0.052000000000000005
1670356593.599959,-9.346,-0.365,4.539,-0.6493,-0.3889,0.3516,0.003,0.022,-0.052000000000000005
1670356593.639959,-9.372,-0.386,4.543,-0.6489,-0.38820000000000005,0.3548,0.009000000000000001,0.021,-0.047
1670356593.679959,-9.349,-0.34400000000000003,4.546,-0.6499,-0.3876,0.3501,0.007,0.017,-0.052000000000000005
1670356593.719959,-9.349,-0.335,4.527,-0.6502,-0.38920000000000005,0.3508,0.008,0.011,-0.041
1670356593.759959,-9.346,-0.377,4.542,-0.6504,-0.3886,0.3504,0.01,0.02,-0.049
1670356593.799959,-9.354000000000001,-0.381,4.569,-0.6523,-0.3896,0.3514,0.012,0.018000000000000002,-0.053
1670356593.839959,-9.282,-0.357,4.581,-0.6494,-0.3914,0.35450000000000004,0.0,0.014,-0.047
1670356593.879959,-9.282,-0.32,4.532,-0.6494,-0.3895,0.3473,0.002,0.017,-0.047
1670356593.919959,-9.346,-0.32,4.532,-0.6515000000000001,-0.3895,0.3473,0.008,0.031,-0.047
1670356593.959959,-9.385,-0.386,4.556,-0.6498,-0.3894,0.3514,0.009000000000000001,0.023,-0.054
1670356593.999959,-9.297,-0.28700000000000003,4.526,-0.6497,-0.391,0.3667,0.003,0.022,-0.056
1670356594.039959,-9.34,-0.371,4.533,-0.6508,-0.38880000000000003,0.3589,-0.001,0.017,-0.055
1670356594.079959,-9.372,-0.37,4.537,-0.6564,-0.3917,0.3632,-0.003,0.008,-0.055
1670356594.119959,-9.381,-0.337,4.5760000000000005,-0.6522,-0.38880000000000003,0.3514,-0.001,0.011,-0.054
1670356594.159959,-9.31,-0.365,4.575,-0.6573,-0.3921,0.3607,-0.002,0.011,-0.061
1670356594.199959,-9.258000000000001,-0.341,4.5760000000000005,-0.6506000000000001,-0.3894,0.35150000000000003,0.005,0.01,-0.051000000000000004
1670356594.239959,-9.385,-0.41400000000000003,4.54,-0.6618,-0.3894,0.3526,0.001,0.023,-0.052000000000000005
1670356594.279959,-9.346,-0.356,4.572,-0.6529,-0.38920000000000005,0.3564,0.004,0.018000000000000002,-0.051000000000000004
1670356594.319959,-9.302,-0.34500000000000003,4.556,-0.6526000000000001,-0.3917,0.3504,0.004,0.016,-0.047
1670356594.359959,-9.332,-0.337,4.556,-0.6492,-0.3884,0.3526,0.012,0.01,-0.059000000000000004
1670356594.3999588,-9.361,-0.339,4.585,-0.6499,-0.38870000000000005,0.3551,0.007,0.008,-0.057
1670356594.439959,-9.349,-0.378,4.5520000000000005,-0.6505000000000001,-0.38880000000000003,0.3502,0.002,0.009000000000000001,-0.055
1670356594.479959,-9.338000000000001,-0.361,4.5520000000000005,-0.6479,-0.3895,0.35100000000000003,-0.003,0.006,-0.053
1670356594.519958,-9.351,-0.363,4.563,-0.6491,-0.3879,0.3516,0.0,0.017,-0.056
1670356594.559958,-9.341000000000001,-0.372,4.588,-0.65,-0.38670000000000004,0.35100000000000003,0.005,0.01,-0.056
1670356594.599958,-9.336,-0.375,4.609,-0.6505000000000001,-0.3875,0.35050000000000003,-0.001,0.017,-0.052000000000000005
1670356594.639958,-9.323,-0.376,4.585,-0.6508,-0.3866,0.35350000000000004,0.006,0.003,-0.057
1670356594.679958,-9.338000000000001,-0.396,4.618,-0.6514,-0.3861,0.3513,-0.002,0.006,-0.045
1670356594.719958,-9.327,-0.36,4.569,-0.6519,-0.3891,0.35550000000000004,0.002,0.01,-0.047
1670356594.759958,-9.307,-0.353,4.596,-0.6506000000000001,-0.3895,0.3542,0.014,0.012,-0.057
1670356594.799958,-9.339,-0.424,4.639,-0.651,-0.38830000000000003,0.3523,-0.007,0.034,-0.047
1670356594.839958,-9.314,-0.38,4.581,-0.6508,-0.38920000000000005,0.3502,-0.005,0.022,-0.036000000000000004
1670356594.879958,-9.33,-0.318,4.606,-0.6513,-0.3884,0.35050000000000003,0.024,0.012,-0.048
1670356594.919958,-9.352,-0.377,4.582,-0.6486000000000001,-0.3891,0.35150000000000003,0.022,0.026000000000000002,-0.063
1670356594.959958,-9.301,-0.368,4.534,-0.6514,-0.3911,0.35150000000000003,0.015,0.019,-0.052000000000000005
1670356594.999958,-9.307,-0.369,4.549,-0.6494,-0.3909,0.3513,-0.004,0.014,-0.037
1670356595.039958,-9.364,-0.328,4.6000000000000005,-0.651,-0.3906,0.3546,0.002,0.011,-0.056
1670356595.079958,-9.354000000000001,-0.365,4.595,-0.6492,-0.3886,0.34940000000000004,0.001,0.01,-0.058
1670356595.119958,-9.269,-0.437,4.582,-0.6513,-0.388,0.3509,-0.009000000000000001,0.011,-0.06
1670356595.159958,-9.314,-0.321,4.591,-0.653,-0.3889,0.3533,0.004,0.014,-0.045
1670356595.1999578,-9.375,-0.403,4.641,-0.6502,-0.3917,0.3549,0.009000000000000001,0.017,-0.047
1670356595.239958,-9.32,-0.365,4.598,-0.649,-0.3904,0.3518,0.013000000000000001,0.026000000000000002,-0.05
1670356595.279958,-9.312,-0.34500000000000003,4.581,-0.651,-0.38880000000000003,0.3537,0.016,0.022,-0.046
1670356595.319958,-9.342,-0.343,4.557,-0.6512,-0.3904,0.3514,0.014,0.023,-0.06
1670356595.359958,-9.366,-0.377,4.6000000000000005,-0.6549,-0.3884,0.3527,0.013000000000000001,0.015,-0.061
1670356595.399958,-9.335,-0.373,4.564,-0.6551,-0.3875,0.35950000000000004,-0.006,0.022,-0.05
1670356595.4399579,-9.317,-0.387,4.531,-0.649,-0.38730000000000003,0.3509,-0.013000000000000001,0.023,-0.054
1670356595.479958,-9.389,-0.34800000000000003,4.563,-0.6494,-0.39,0.3507,-0.002,0.039,-0.049
1670356595.519958,-9.299,-0.405,4.595,-0.6491,-0.38830000000000003,0.3508,-0.007,0.05,-0.046
1670356595.559958,-9.3,-0.424,4.625,-0.6479,-0.3859,0.3509,-0.018000000000000002,0.05,-0.025
1670356595.599958,-9.338000000000001,-0.302,4.606,-0.6497,-0.38970000000000005,0.35100000000000003,0.002,0.046,-0.039
1670356595.639957,-9.348,-0.377,4.517,-0.6483,-0.3879,0.3507,0.017,0.033,-0.057
1670356595.679957,-9.371,-0.363,4.484,-0.6508,-0.3895,0.34800000000000003,0.016,0.04,-0.051000000000000004
1670356595.719957,-9.363,-0.343,4.463,-0.6474000000000001,-0.3884,0.3496,0.014,0.023,-0.047
1670356595.759957,-9.378,-0.337,4.436,-0.6472,-0.38970000000000005,0.34940000000000004,0.02,0.006,-0.058
1670356595.799957,-9.345,-0.341,4.439,-0.6509,-0.389,0.3547,0.028,-0.005,-0.063
1670356595.839957,-9.419,-0.325,4.516,-0.6509,-0.38970000000000005,0.35150000000000003,0.02,0.002,-0.05
1670356595.879957,-9.349,-0.373,4.506,-0.6526000000000001,-0.3891,0.3567,-0.001,0.002,-0.055
1670356595.919957,-9.289,-0.325,4.559,-0.648,-0.3909,0.3517,0.001,-0.002,-0.064
1670356595.959957,-9.35,-0.372,4.564,-0.6491,-0.3879,0.35300000000000004,0.003,-0.016,-0.069
1670356595.9999568,-9.34,-0.429,4.633,-0.6501,-0.38880000000000003,0.35000000000000003,-0.016,-0.006,-0.069
1670356596.039957,-9.324,-0.378,4.635,-0.6507000000000001,-0.3859,0.3523,-0.024,0.0,-0.063
1670356596.079957,-9.27,-0.42,4.6450000000000005,-0.6517000000000001,-0.39080000000000004,0.3564,-0.015,0.015,-0.056
1670356596.119957,-9.298,-0.36,4.636,-0.6571,-0.3874,0.3583,0.001,0.027,-0.045
1670356596.159957,-9.298,-0.36,4.543,-0.6571,-0.3874,0.3578,0.007,0.029,-0.044
1670356596.199957,-9.36,-0.422,4.543,-0.654,-0.3899,0.3578,0.006,0.038,-0.044
1670356596.2399569,-9.324,-0.354,4.5680000000000005,-0.6546000000000001,-0.3917,0.3682,0.003,0.032,-0.034
1670356596.279957,-9.299,-0.342,4.539,-0.6508,-0.39380000000000004,0.3512,0.018000000000000002,0.021,-0.047
1670356596.319957,-9.351,-0.327,4.558,-0.6645,-0.39180000000000004,0.3664,0.018000000000000002,0.015,-0.061
1670356596.359957,-9.343,-0.385,4.516,-0.6532,-0.38880000000000003,0.3521,0.0,0.018000000000000002,-0.05
1670356596.399957,-9.352,-0.4,4.564,-0.6512,-0.3889,0.3524,-0.003,0.012,-0.05
1670356596.439957,-9.347,-0.35000000000000003,4.579,-0.6501,-0.38780000000000003,0.3559,-0.004,0.014,-0.055
1670356596.4799569,-9.354000000000001,-0.368,4.5520000000000005,-0.6489,-0.3894,0.3523,0.001,0.019,-0.051000000000000004
1670356596.519957,-9.365,-0.38,4.561,-0.6499,-0.38630000000000003,0.34940000000000004,0.003,0.019,-0.047
1670356596.559957,-9.332,-0.35100000000000003,4.598,-0.6485000000000001,-0.3869,0.3533,0.011,0.015,-0.055
1670356596.599957,-9.323,-0.40700000000000003,4.573,-0.6491,-0.38880000000000003,0.3521,0.005,0.017,-0.045
1670356596.639957,-9.346,-0.384,4.57,-0.651,-0.39030000000000004,0.35250000000000004,0.005,0.015,-0.048
1670356596.679956,-9.358,-0.35100000000000003,4.558,-0.649,-0.3899,0.3527,0.011,0.01,-0.051000000000000004
1670356596.719956,-9.311,-0.41100000000000003,4.598,-0.6506000000000001,-0.388,0.35200000000000004,0.0,0.016,-0.05
1670356596.759956,-9.413,-0.396,4.557,-0.6504,-0.3894,0.3532,0.005,0.025,-0.041
1670356596.7999558,-9.414,-0.325,4.561,-0.6499,-0.38920000000000005,0.3528,0.008,0.033,-0.044
1670356596.839956,-9.282,-0.338,4.539,-0.6472,-0.38830000000000003,0.3516,0.017,0.023,-0.054
1670356596.879956,-9.339,-0.35100000000000003,4.49,-0.652,-0.3884,0.34990000000000004,0.02,0.013000000000000001,-0.05
1670356596.919956,-9.363,-0.357,4.548,-0.6507000000000001,-0.3901,0.35100000000000003,0.012,0.01,-0.049
1670356596.959956,-9.351,-0.356,4.581,-0.6504,-0.3915,0.3491,0.009000000000000001,0.013000000000000001,-0.057
1670356596.999956,-9.299,-0.34700000000000003,4.5920000000000005,-0.6506000000000001,-0.38770000000000004,0.35050000000000003,0.005,0.009000000000000001,-0.068
1670356597.0399559,-9.323,-0.339,4.525,-0.6508,-0.3906,0.3502,0.007,0.004,-0.043000000000000003
1670356597.079956,-9.397,-0.384,4.588,-0.6524,-0.3869,0.3498,0.006,0.026000000000000002,-0.048
1670356597.119956,-9.372,-0.34400000000000003,4.6370000000000005,-0.6502,-0.3905,0.35200000000000004,0.007,0.032,-0.05
1670356597.159956,-9.282,-0.34900000000000003,4.57,-0.6508,-0.3907,0.3526,0.006,0.018000000000000002,-0.043000000000000003
1670356597.199956,-9.34,-0.339,4.546,-0.6556000000000001,-0.3884,0.35350000000000004,0.013000000000000001,0.019,-0.049
1670356597.239956,-9.377,-0.34600000000000003,4.557,-0.65,-0.38880000000000003,0.3506,0.014,0.013000000000000001,-0.055
1670356597.2799559,-9.34,-0.37,4.534,-0.6498,-0.38880000000000003,0.3529,0.011,0.014,-0.048
1670356597.319956,-9.324,-0.361,4.543,-0.6511,-0.38970000000000005,0.35200000000000004,0.008,0.013000000000000001,-0.053
