timestamp,acc_x,acc_y,acc_z,magn_x,magn_y,magn_z,gyro_x,gyro_y,gyro_z
1670265743.24,-10.299,-0.369,2.386,0.0102,0.6696000000000001,0.12040000000000001,0.02,-0.016,-0.009000000000000001
1670265743.28,-10.295,-0.223,2.486,0.0143,0.6718000000000001,0.1193,0.017,-0.029,0.0
1670265743.32,-10.286,-0.293,2.4170000000000003,0.012100000000000001,0.6687000000000001,0.11850000000000001,0.02,-0.016,-0.008
1670265743.36,-10.261000000000001,-0.28200000000000003,2.446,0.010100000000000001,0.6684,0.1189,0.021,-0.014,-0.012
1670265743.4,-10.235,-0.317,2.394,0.0114,0.6687000000000001,0.1189,0.01,-0.014,0.0
1670265743.44,-10.27,-0.244,2.414,0.0115,0.6721,0.11720000000000001,0.026000000000000002,-0.012,-0.004
1670265743.48,-10.275,-0.273,2.463,0.010700000000000001,0.6687000000000001,0.1163,0.032,-0.016,-0.006
1670265743.52,-10.271,-0.317,2.426,0.0106,0.6692,0.1207,0.021,-0.012,-0.006
1670265743.559999,-10.271,-0.307,2.432,0.0115,0.6672,0.11950000000000001,0.006,-0.012,-0.005
1670265743.599999,-10.28,-0.28,2.41,0.010100000000000001,0.6687000000000001,0.12050000000000001,0.008,-0.015,0.001
1670265743.639999,-10.277000000000001,-0.28200000000000003,2.432,0.013000000000000001,0.6701,0.11710000000000001,0.017,-0.019,-0.007
1670265743.6799989,-10.274000000000001,-0.29,2.451,0.0119,0.6707000000000001,0.12100000000000001,0.018000000000000002,-0.02,-0.008
1670265743.719999,-10.263,-0.298,2.419,0.009300000000000001,0.671,0.11810000000000001,0.027,-0.025,-0.009000000000000001
1670265743.759999,-10.262,-0.305,2.473,0.0114,0.671,0.11900000000000001,0.018000000000000002,-0.024,-0.01
1670265743.799999,-10.287,-0.299,2.432,0.0146,0.6687000000000001,0.1183,0.015,-0.025,-0.006
1670265743.839999,-10.251,-0.281,2.5140000000000002,0.0114,0.6688000000000001,0.1179,0.017,-0.029,-0.011
1670265743.879999,-10.265,-0.353,2.511,0.0108,0.6695,0.1168,0.02,-0.026000000000000002,-0.009000000000000001
1670265743.919999,-10.258000000000001,-0.294,2.472,0.0126,0.67,0.1208,0.019,-0.013000000000000001,-0.01
1670265743.959999,-10.282,-0.211,2.532,0.009600000000000001,0.668,0.1178,0.022,-0.012,0.003
1670265743.999999,-10.24,-0.335,2.4130000000000003,0.013900000000000001,0.6726000000000001,0.1222,0.022,-0.007,-0.011
1670265744.039999,-10.21,-0.28700000000000003,2.452,0.0119,0.6692,0.11950000000000001,0.024,-0.015,-0.011
1670265744.079999,-10.216000000000001,-0.291,2.453,0.0038,0.667,0.12090000000000001,0.016,-0.02,-0.004
1670265744.119999,-10.277000000000001,-0.295,2.466,0.012100000000000001,0.6692,0.11850000000000001,0.02,-0.01,-0.005
1670265744.159999,-10.205,-0.28,2.5,0.0148,0.672,0.1182,0.015,-0.019,-0.016
1670265744.199999,-10.214,-0.31,2.423,0.0118,0.6718000000000001,0.1207,0.018000000000000002,-0.025,-0.007
1670265744.239999,-10.256,-0.324,2.504,0.013600000000000001,0.6675,0.11900000000000001,0.015,-0.012,-0.002
1670265744.279999,-10.266,-0.341,2.466,0.0117,0.6698000000000001,0.1179,0.016,-0.012,-0.006
1670265744.319999,-10.232000000000001,-0.328,2.485,0.0129,0.6706000000000001,0.11710000000000001,0.009000000000000001,-0.017,0.003
1670265744.359999,-10.268,-0.311,2.428,0.0151,0.6683,0.1193,0.011,-0.024,-0.007
1670265744.399999,-10.278,-0.29,2.498,0.0083,0.6668000000000001,0.129,0.019,-0.016,-0.003
1670265744.439999,-10.257,-0.313,2.428,0.011300000000000001,0.672,0.114,0.019,-0.008,0.0
1670265744.479999,-10.258000000000001,-0.328,2.441,0.0091,0.6711,0.1211,0.007,-0.004,-0.007
1670265744.519999,-10.238,-0.31,2.382,0.0114,0.6706000000000001,0.11670000000000001,0.005,-0.006,0.001
1670265744.559999,-10.252,-0.308,2.3850000000000002,0.0117,0.6677000000000001,0.1242,0.01,-0.011,0.002
1670265744.599998,-10.27,-0.274,2.394,0.0128,0.6709,0.13140000000000002,0.011,-0.007,0.0
1670265744.639998,-10.261000000000001,-0.276,2.384,0.0129,0.67,0.117,0.016,-0.011,0.0
1670265744.679998,-10.27,-0.295,2.354,0.0134,0.6718000000000001,0.11960000000000001,0.034,-0.019,-0.013000000000000001
1670265744.719998,-10.244,-0.26,2.422,0.011000000000000001,0.6697000000000001,0.11950000000000001,0.034,-0.03,-0.019
1670265744.759998,-10.219,-0.324,2.437,0.0106,0.6713,0.1237,0.038,-0.036000000000000004,-0.018000000000000002
1670265744.799998,-10.284,-0.342,2.494,0.0122,0.6719,0.1211,0.05,-0.031,-0.024
1670265744.839998,-10.294,-0.259,2.523,0.0115,0.6686000000000001,0.1189,0.057,-0.025,-0.005
1670265744.879998,-10.239,-0.317,2.532,0.0145,0.6717000000000001,0.1197,0.059000000000000004,-0.01,-0.007
1670265744.919998,-10.203,-0.311,2.535,0.013000000000000001,0.6703,0.11810000000000001,0.059000000000000004,-0.015,-0.023
1670265744.959998,-10.235,-0.389,2.508,0.011600000000000001,0.667,0.12380000000000001,0.038,-0.02,-0.017
1670265744.999998,-10.266,-0.338,2.532,0.013000000000000001,0.6711,0.1232,0.021,-0.011,-0.012
1670265745.039998,-10.201,-0.34700000000000003,2.499,0.012400000000000001,0.6726000000000001,0.1183,0.024,-0.004,-0.014
1670265745.079998,-10.211,-0.314,2.496,0.010100000000000001,0.6718000000000001,0.12010000000000001,0.028,-0.016,-0.018000000000000002
1670265745.119998,-10.227,-0.40800000000000003,2.517,0.013000000000000001,0.6686000000000001,0.11750000000000001,0.036000000000000004,-0.02,-0.023
1670265745.159998,-10.284,-0.417,2.504,0.0098,0.6722,0.1184,0.024,-0.017,-0.02
1670265745.199998,-10.245000000000001,-0.425,2.416,0.013300000000000001,0.6726000000000001,0.1203,-0.016,0.012,0.012
1670265745.239998,-10.290000000000001,-0.322,2.372,0.0122,0.6712,0.1187,-0.024,0.036000000000000004,0.013000000000000001
1670265745.279998,-10.248,-0.29,2.313,0.0135,0.6718000000000001,0.1218,0.008,0.041,0.004
1670265745.319998,-10.256,-0.373,2.278,0.0118,0.6718000000000001,0.1203,0.01,0.005,0.004
1670265745.359998,-10.243,-0.426,2.294,0.0118,0.6715,0.11750000000000001,-0.02,-0.032,-0.002
1670265745.399998,-10.298,-0.332,2.356,0.0123,0.6723,0.11960000000000001,-0.029,-0.055,-0.012
1670265745.439998,-10.263,-0.311,2.476,0.0123,0.674,0.1202,-0.001,-0.063,-0.013000000000000001
1670265745.479998,-10.217,-0.343,2.557,0.010400000000000001,0.6726000000000001,0.12040000000000001,0.021,-0.056,-0.008
1670265745.519998,-10.24,-0.353,2.536,0.0103,0.675,0.1187,0.022,-0.047,0.0
1670265745.559998,-10.27,-0.316,2.525,0.011300000000000001,0.6698000000000001,0.12010000000000001,0.034,-0.022,0.009000000000000001
1670265745.599998,-10.246,-0.278,2.566,0.010100000000000001,0.6705,0.12010000000000001,0.053,0.002,0.008
1670265745.639997,-10.234,-0.292,2.529,0.010100000000000001,0.6714,0.1189,0.055,0.0,0.01
1670265745.679997,-10.261000000000001,-0.341,2.503,0.0105,0.6704,0.1197,0.035,0.003,0.017
1670265745.719997,-10.253,-0.278,2.457,0.0105,0.667,0.1218,0.018000000000000002,-0.002,0.012
1670265745.759997,-10.27,-0.212,2.465,0.0102,0.6707000000000001,0.12090000000000001,0.014,-0.001,0.002
1670265745.799997,-10.271,-0.28300000000000003,2.423,0.0102,0.668,0.1194,0.013000000000000001,-0.003,-0.011
1670265745.839997,-10.259,-0.32,2.423,0.0118,0.669,0.1212,0.003,-0.014,-0.017
1670265745.879997,-10.252,-0.361,2.394,0.0131,0.6708000000000001,0.1216,-0.017,-0.009000000000000001,-0.003
1670265745.919997,-10.259,-0.326,2.414,0.0098,0.6725,0.1228,-0.01,-0.009000000000000001,-0.014
1670265745.959997,-10.293000000000001,-0.297,2.469,0.0123,0.6719,0.1182,0.016,-0.013000000000000001,-0.018000000000000002
1670265745.999997,-10.302,-0.41500000000000004,2.42,0.0058000000000000005,0.6694,0.11950000000000001,0.005,-0.018000000000000002,-0.01
1670265746.039997,-10.283,-0.31,2.496,0.013000000000000001,0.6706000000000001,0.1192,0.024,-0.02,0.001
1670265746.079997,-10.261000000000001,-0.353,2.5380000000000003,0.0122,0.672,0.1189,0.021,-0.022,-0.007
1670265746.119997,-10.232000000000001,-0.326,2.549,0.009300000000000001,0.6703,0.11760000000000001,0.031,-0.019,0.004
1670265746.159997,-10.262,-0.35000000000000003,2.493,0.0118,0.6698000000000001,0.1193,0.032,-0.018000000000000002,0.0
1670265746.199997,-10.252,-0.272,2.515,0.009300000000000001,0.6718000000000001,0.11900000000000001,0.03,-0.012,0.006
1670265746.239997,-10.268,-0.307,2.473,0.009000000000000001,0.6667000000000001,0.1273,0.03,-0.01,-0.004
1670265746.279997,-10.265,-0.336,2.48,0.0117,0.669,0.12010000000000001,0.015,-0.005,0.0
1670265746.319997,-10.253,-0.318,2.453,0.0077,0.6695,0.1081,0.008,-0.001,0.005
1670265746.359997,-10.234,-0.28200000000000003,2.387,0.0097,0.6678000000000001,0.1109,0.016,-0.003,-0.005
1670265746.399997,-10.268,-0.293,2.4090000000000003,0.0115,0.6696000000000001,0.14880000000000002,0.011,-0.013000000000000001,0.0
1670265746.439997,-10.241,-0.334,2.459,0.9979,0.6665,0.1327,0.022,-0.023,-0.012
1670265746.479997,-10.225,-0.34700000000000003,2.439,0.011300000000000001,0.6726000000000001,0.1232,0.009000000000000001,-0.02,-0.013000000000000001
1670265746.519997,-10.25,-0.297,2.504,0.0102,0.6712,0.1197,0.006,-0.015,0.0
1670265746.5599968,-10.311,-0.375,2.3850000000000002,0.011000000000000001,0.6671,0.11910000000000001,0.032,-0.02,-0.009000000000000001
1670265746.599997,-10.233,-0.358,2.472,0.0119,0.671,0.1183,0.014,-0.012,-0.005
1670265746.639997,-10.307,-0.365,2.435,0.0108,0.6708000000000001,0.11850000000000001,0.013000000000000001,-0.024,0.0
1670265746.679996,-10.263,-0.325,2.462,0.010100000000000001,0.6687000000000001,0.1178,0.017,-0.022,-0.005
1670265746.719996,-10.303,-0.23700000000000002,2.468,0.0118,0.6693,0.12040000000000001,0.027,-0.011,0.004
1670265746.759996,-10.296,-0.313,2.478,0.013000000000000001,0.6712,0.11800000000000001,0.036000000000000004,-0.01,0.004
1670265746.799996,-10.244,-0.301,2.4210000000000003,0.0105,0.6698000000000001,0.11900000000000001,0.027,-0.004,0.002
1670265746.839996,-10.211,-0.33,2.4290000000000003,0.0115,0.6689,0.1194,0.021,-0.014,0.004
1670265746.879996,-10.253,-0.316,2.444,0.0112,0.6703,0.11910000000000001,0.016,-0.015,-0.005
1670265746.919996,-10.268,-0.267,2.464,0.0094,0.6692,0.1203,0.021,-0.011,-0.002
1670265746.959996,-10.231,-0.356,2.49,0.013600000000000001,0.6713,0.1179,0.007,-0.012,-0.008
1670265746.999996,-10.256,-0.28400000000000003,2.488,0.0118,0.6689,0.11960000000000001,0.019,-0.022,-0.004
1670265747.039996,-10.295,-0.328,2.434,0.012400000000000001,0.672,0.1194,0.024,-0.011,-0.006
1670265747.079996,-10.229000000000001,-0.324,2.438,0.013600000000000001,0.6728000000000001,0.1202,0.024,-0.007,-0.003
1670265747.119996,-10.254,-0.33,2.424,0.009600000000000001,0.6706000000000001,0.1174,0.017,-0.012,0.007
1670265747.159996,-10.283,-0.28600000000000003,2.445,0.0097,0.6701,0.1189,0.028,-0.014,-0.001
1670265747.199996,-10.286,-0.325,2.449,0.0071,0.6675,0.1242,0.031,-0.01,-0.003
1670265747.239996,-10.235,-0.35000000000000003,2.464,0.0115,0.6701,0.1207,0.015,-0.009000000000000001,-0.001
1670265747.279996,-10.253,-0.336,2.435,0.012100000000000001,0.6709,0.1168,0.001,-0.008,-0.002
1670265747.319996,-10.286,-0.296,2.441,0.0112,0.6715,0.12040000000000001,0.012,-0.011,-0.003
1670265747.359996,-10.218,-0.311,2.467,0.008,0.6701,0.11710000000000001,0.02,-0.011,-0.005
1670265747.399996,-10.273,-0.317,2.4050000000000002,0.0122,0.6718000000000001,0.1177,0.021,-0.022,-0.01
1670265747.439996,-10.243,-0.327,2.441,0.0115,0.672,0.1203,0.015,-0.02,-0.003
1670265747.479996,-10.237,-0.328,2.475,0.0099,0.6707000000000001,0.1192,0.01,-0.02,-0.003
1670265747.519996,-10.252,-0.304,2.5260000000000002,0.01,0.6712,0.1174,0.02,-0.014,-0.006
1670265747.559996,-10.246,-0.32,2.46,0.0105,0.67,0.11960000000000001,0.02,-0.014,-0.005
1670265747.5999959,-10.266,-0.317,2.491,0.0112,0.6694,0.1207,0.021,-0.018000000000000002,-0.005
1670265747.639996,-10.266,-0.378,2.435,0.0086,0.6704,0.11950000000000001,0.01,-0.014,-0.008
1670265747.679996,-10.241,-0.308,2.511,0.0081,0.6676000000000001,0.12040000000000001,0.018000000000000002,-0.008,-0.004
1670265747.719995,-10.261000000000001,-0.244,2.5,0.010100000000000001,0.6713,0.1178,0.017,-0.011,0.008
1670265747.759995,-10.274000000000001,-0.331,2.438,0.005200000000000001,0.6681,0.1212,0.02,-0.011,-0.001
1670265747.799995,-10.24,-0.28200000000000003,2.423,0.0088,0.6665,0.1178,0.025,-0.012,-0.002
1670265747.839995,-10.232000000000001,-0.365,2.407,0.0112,0.6687000000000001,0.12010000000000001,0.009000000000000001,-0.018000000000000002,-0.001
1670265747.879995,-10.262,-0.322,2.476,0.0118,0.6708000000000001,0.1178,0.012,-0.011,-0.002
1670265747.919995,-10.256,-0.264,2.448,0.012400000000000001,0.6695,0.1179,0.017,-0.017,-0.02
1670265747.959995,-10.311,-0.386,2.418,0.0083,0.6695,0.1211,0.005,-0.022,-0.013000000000000001
1670265747.999995,-10.232000000000001,-0.334,2.503,0.0066,0.6681,0.12250000000000001,0.016,-0.016,0.002
1670265748.039995,-10.254,-0.357,2.491,0.0097,0.6693,0.1174,0.019,-0.013000000000000001,-0.004
1670265748.079995,-10.25,-0.313,2.4010000000000002,0.009600000000000001,0.6701,0.1179,0.019,-0.019,0.002
1670265748.119995,-10.248,-0.34800000000000003,2.432,0.0103,0.6708000000000001,0.11860000000000001,0.01,-0.01,0.002
1670265748.159995,-10.246,-0.311,2.46,0.010400000000000001,0.6691,0.1168,0.032,-0.009000000000000001,0.002
1670265748.199995,-10.263,-0.306,2.437,0.0108,0.6701,0.1066,0.022,-0.007,0.0
1670265748.239995,-10.25,-0.333,2.459,0.0079,0.6686000000000001,0.1323,0.008,-0.006,-0.003
1670265748.279995,-10.256,-0.311,2.432,0.009300000000000001,0.6709,0.11950000000000001,0.005,-0.005,0.003
1670265748.319995,-10.296,-0.298,2.418,0.010400000000000001,0.6708000000000001,0.11760000000000001,0.008,-0.007,0.002
1670265748.359995,-10.28,-0.302,2.488,0.0119,0.6696000000000001,0.11950000000000001,0.017,-0.01,0.0
1670265748.3999949,-10.231,-0.331,2.466,0.0106,0.6709,0.11960000000000001,0.01,-0.013000000000000001,0.001
1670265748.439995,-10.271,-0.301,2.438,0.0114,0.6704,0.1183,0.017,-0.019,0.001
1670265748.479995,-10.272,-0.28,2.49,0.0122,0.6691,0.12000000000000001,0.016,-0.007,0.001
1670265748.519995,-10.261000000000001,-0.325,2.418,0.012,0.6707000000000001,0.1193,0.016,-0.01,0.004
1670265748.559995,-10.268,-0.31,2.494,0.0122,0.6705,0.12100000000000001,0.021,-0.012,-0.003
1670265748.599995,-10.261000000000001,-0.382,2.378,0.0118,0.669,0.11910000000000001,0.014,-0.016,0.002
1670265748.6399949,-10.301,-0.328,2.448,0.0115,0.6703,0.1198,0.011,-0.016,-0.007
1670265748.679995,-10.306000000000001,-0.253,2.3810000000000002,0.010400000000000001,0.6688000000000001,0.1197,0.007,-0.017,0.0
1670265748.719995,-10.237,-0.334,2.453,0.013900000000000001,0.6701,0.12000000000000001,0.02,-0.012,-0.003
1670265748.759995,-10.252,-0.308,2.422,0.0082,0.6734,0.1192,0.017,-0.015,-0.006
1670265748.799995,-10.26,-0.331,2.463,0.0109,0.6701,0.1199,0.015,-0.019,-0.006
1670265748.839994,-10.284,-0.307,2.424,0.0092,0.6718000000000001,0.12150000000000001,0.012,-0.009000000000000001,0.0
1670265748.879994,-10.242,-0.302,2.447,0.013600000000000001,0.6712,0.11960000000000001,0.015,-0.013000000000000001,-0.005
1670265748.919994,-10.238,-0.368,2.423,0.009300000000000001,0.6713,0.11810000000000001,0.004,-0.011,-0.003
1670265748.959994,-10.26,-0.304,2.448,0.011600000000000001,0.6696000000000001,0.11960000000000001,0.023,-0.022,0.002
1670265748.999994,-10.243,-0.35100000000000003,2.5,0.0086,0.67,0.1184,0.027,-0.009000000000000001,-0.007
1670265749.039994,-10.248,-0.34800000000000003,2.399,0.009600000000000001,0.6703,0.11910000000000001,0.022,-0.008,0.004
1670265749.079994,-10.214,-0.339,2.439,0.0094,0.6707000000000001,0.11620000000000001,0.018000000000000002,-0.013000000000000001,0.001
1670265749.119994,-10.296,-0.296,2.4130000000000003,0.011300000000000001,0.6711,0.1168,0.032,-0.018000000000000002,0.001
1670265749.159994,-10.244,-0.328,2.452,0.0102,0.6706000000000001,0.1159,0.03,-0.008,0.001
1670265749.1999938,-10.249,-0.34700000000000003,2.39,0.0097,0.6727000000000001,0.1187,0.007,-0.01,-0.003
1670265749.239994,-10.255,-0.319,2.4170000000000003,0.0105,0.6704,0.1188,0.003,-0.01,-0.001
1670265749.279994,-10.297,-0.304,2.411,0.0088,0.671,0.1199,0.004,-0.008,-0.003
1670265749.319994,-10.278,-0.34,2.477,0.0092,0.6722,0.1188,0.009000000000000001,-0.014,0.001
1670265749.359994,-10.253,-0.315,2.406,0.0092,0.6726000000000001,0.1207,0.017,-0.026000000000000002,-0.004
1670265749.399994,-10.249,-0.326,2.446,0.0088,0.6723,0.1182,0.027,-0.014,-0.011
1670265749.4399939,-10.241,-0.386,2.402,0.0112,0.669,0.1217,0.017,-0.026000000000000002,-0.003
1670265749.479994,-10.247,-0.328,2.499,0.01,0.6704,0.1163,0.015,-0.016,0.0
1670265749.519994,-10.258000000000001,-0.299,2.465,0.0119,0.6675,0.12150000000000001,0.024,-0.008,-0.002
1670265749.559994,-10.274000000000001,-0.334,2.434,0.006200000000000001,0.6707000000000001,0.11950000000000001,0.025,-0.012,-0.003
1670265749.599994,-10.252,-0.359,2.424,0.0108,0.6672,0.1213,0.013000000000000001,-0.008,0.003
1670265749.639994,-10.259,-0.357,2.444,0.012,0.6707000000000001,0.1198,0.005,-0.008,0.007
1670265749.6799939,-10.3,-0.319,2.455,0.0094,0.6715,0.1198,0.026000000000000002,-0.007,-0.002
1670265749.719994,-10.333,-0.252,2.388,0.0111,0.6709,0.1211,0.03,-0.006,0.003
1670265749.759994,-10.233,-0.353,2.46,0.9982000000000001,0.6682,0.1254,0.021,-0.013000000000000001,-0.009000000000000001
1670265749.799994,-10.221,-0.324,2.44,0.012100000000000001,0.6725,0.11950000000000001,0.008,-0.016,0.001
1670265749.839994,-10.237,-0.301,2.488,0.0102,0.6716000000000001,0.1168,0.01,-0.007,-0.003
1670265749.879993,-10.232000000000001,-0.311,2.468,0.0117,0.6713,0.1168,0.024,-0.009000000000000001,-0.011
1670265749.919993,-10.265,-0.317,2.48,0.009600000000000001,0.6693,0.12140000000000001,0.016,-0.019,-0.018000000000000002
1670265749.959993,-10.24,-0.376,2.432,0.009600000000000001,0.672,0.1168,0.002,-0.024,-0.001
1670265749.9999928,-10.262,-0.306,2.444,0.0055000000000000005,0.6668000000000001,0.11170000000000001,0.023,-0.014,-0.007
1670265750.039993,-10.267,-0.34,2.454,0.007500000000000001,0.6707000000000001,0.114,0.017,-0.008,-0.011
1670265750.079993,-10.226,-0.326,2.47,0.0088,0.6695,0.1163,0.015,-0.013000000000000001,0.007
1670265750.119993,-10.288,-0.269,2.46,0.0095,0.6704,0.1126,0.028,-0.013000000000000001,0.003
1670265750.159993,-10.254,-0.359,2.438,0.0106,0.669,0.1182,0.035,-0.01,-0.006
1670265750.199993,-10.256,-0.363,2.452,0.011000000000000001,0.6697000000000001,0.1188,0.02,-0.01,0.0
1670265750.2399929,-10.264,-0.312,2.411,0.0088,0.6734,0.1179,0.009000000000000001,-0.012,0.001
1670265750.279993,-10.233,-0.295,2.485,0.0102,0.6709,0.11850000000000001,0.016,-0.011,-0.004
1670265750.319993,-10.277000000000001,-0.323,2.418,0.0114,0.6694,0.11460000000000001,0.024,-0.014,-0.002
1670265750.359993,-10.258000000000001,-0.326,2.452,0.0097,0.6699,0.1184,0.022,-0.02,-0.007
1670265750.399993,-10.278,-0.337,2.396,0.011000000000000001,0.67,0.1193,0.022,-0.023,-0.007
1670265750.439993,-10.287,-0.308,2.445,0.011600000000000001,0.6723,0.1193,0.017,-0.013000000000000001,-0.001
1670265750.4799929,-10.275,-0.293,2.511,0.011600000000000001,0.6711,0.11850000000000001,0.022,-0.018000000000000002,-0.003
1670265750.519993,-10.269,-0.302,2.451,0.0041,0.6715,0.11760000000000001,0.022,-0.009000000000000001,0.0
1670265750.559993,-10.253,-0.342,2.456,0.0099,0.6717000000000001,0.1179,0.019,-0.008,0.0
1670265750.599993,-10.272,-0.314,2.439,0.01,0.6668000000000001,0.11810000000000001,0.02,-0.014,-0.003
1670265750.639993,-10.282,-0.342,2.442,0.0083,0.6711,0.11710000000000001,0.012,-0.007,0.002
1670265750.679993,-10.235,-0.326,2.495,0.009600000000000001,0.6703,0.1164,0.017,-0.01,-0.007
1670265750.7199929,-10.306000000000001,-0.251,2.4170000000000003,0.010100000000000001,0.6695,0.11950000000000001,0.026000000000000002,-0.012,0.004
1670265750.759993,-10.271,-0.338,2.435,0.0108,0.6699,0.1206,0.029,-0.002,0.004
1670265750.799993,-10.213000000000001,-0.296,2.447,0.0091,0.6706000000000001,0.1159,0.026000000000000002,-0.015,-0.005
1670265750.839993,-10.274000000000001,-0.305,2.4,0.009600000000000001,0.6707000000000001,0.1189,0.027,-0.016,-0.001
1670265750.879993,-10.262,-0.329,2.406,0.0118,0.6696000000000001,0.11800000000000001,0.015,-0.016,-0.006
1670265750.919992,-10.305,-0.292,2.437,0.0109,0.6725,0.1189,0.025,-0.016,-0.009000000000000001
1670265750.959992,-10.298,-0.356,2.402,0.0097,0.6701,0.11560000000000001,0.021,-0.019,-0.009000000000000001
1670265750.999992,-10.241,-0.32,2.501,0.0088,0.6701,0.1182,0.027,-0.017,0.0
1670265751.0399919,-10.278,-0.343,2.462,0.0097,0.6716000000000001,0.1197,0.021,-0.009000000000000001,-0.003
1670265751.079992,-10.261000000000001,-0.298,2.426,0.0114,0.669,0.11810000000000001,0.027,-0.006,0.005
1670265751.119992,-10.232000000000001,-0.308,2.436,0.012400000000000001,0.6713,0.11760000000000001,0.022,-0.008,0.004
1670265751.159992,-10.279,-0.266,2.49,0.010700000000000001,0.6689,0.11900000000000001,0.035,-0.007,-0.003
1670265751.199992,-10.272,-0.309,2.45,0.0094,0.6692,0.11900000000000001,0.029,-0.007,0.0
1670265751.239992,-10.243,-0.339,2.42,0.011600000000000001,0.6664,0.11860000000000001,0.005,-0.005,0.001
1670265751.2799919,-10.258000000000001,-0.32,2.457,0.011300000000000001,0.6687000000000001,0.11950000000000001,0.0,-0.01,-0.002
1670265751.319992,-10.25,-0.28600000000000003,2.435,0.0099,0.6685,0.1189,0.007,-0.013000000000000001,-0.005
1670265751.359992,-10.277000000000001,-0.313,2.4090000000000003,0.013000000000000001,0.6703,0.11750000000000001,0.017,-0.017,-0.008
1670265751.399992,-10.253,-0.317,2.447,0.0094,0.6715,0.11670000000000001,0.02,-0.02,-0.009000000000000001
1670265751.439992,-10.239,-0.304,2.483,0.0083,0.67,0.11960000000000001,0.024,-0.023,-0.007
1670265751.479992,-10.25,-0.305,2.449,0.0102,0.6701,0.1183,0.023,-0.018000000000000002,0.0
1670265751.5199919,-10.233,-0.318,2.4250000000000003,0.0067,0.6681,0.1193,0.021,-0.021,-0.001
1670265751.559992,-10.268,-0.313,2.4,0.010700000000000001,0.6692,0.12090000000000001,0.02,-0.02,-0.006
1670265751.599992,-10.255,-0.307,2.457,0.0122,0.67,0.1197,0.025,-0.021,-0.005
1670265751.639992,-10.279,-0.375,2.411,0.0105,0.6711,0.1184,0.018000000000000002,-0.013000000000000001,-0.005
1670265751.679992,-10.235,-0.312,2.47,0.0105,0.668,0.1194,0.01,-0.01,-0.006
1670265751.719992,-10.261000000000001,-0.26,2.4130000000000003,0.010100000000000001,0.67,0.11950000000000001,0.022,-0.001,0.011
1670265751.759992,-10.258000000000001,-0.317,2.464,0.996,0.6653,0.1287,0.027,-0.012,-0.008
1670265751.799992,-10.244,-0.28400000000000003,2.441,0.0057,0.6677000000000001,0.117,0.027,-0.011,-0.002
1670265751.839992,-10.241,-0.354,2.35,0.010700000000000001,0.6688000000000001,0.1226,0.003,-0.011,0.002
1670265751.879992,-10.281,-0.296,2.3850000000000002,0.0085,0.67,0.0947,0.001,-0.017,0.0
1670265751.919992,-10.291,-0.23500000000000001,2.3890000000000002,0.008400000000000001,0.6689,0.10010000000000001,0.013000000000000001,-0.027,-0.018000000000000002
1670265751.959991,-10.249,-0.328,2.434,0.010700000000000001,0.6687000000000001,0.11470000000000001,0.011,-0.025,-0.002
1670265751.999991,-10.251,-0.341,2.418,0.0094,0.6705,0.1272,0.013000000000000001,-0.012,0.0
1670265752.039991,-10.253,-0.292,2.442,0.0129,0.6697000000000001,0.11850000000000001,0.019,-0.009000000000000001,-0.001
1670265752.0799909,-10.238,-0.301,2.481,0.0131,0.6711,0.1168,0.018000000000000002,-0.016,0.0
1670265752.119991,-10.238,-0.299,2.457,0.0106,0.6692,0.1206,0.026000000000000002,-0.008,0.004
1670265752.159991,-10.271,-0.305,2.492,0.011300000000000001,0.6711,0.1192,0.022,-0.011,0.002
1670265752.199991,-10.252,-0.335,2.395,0.0109,0.6694,0.1197,0.016,-0.009000000000000001,-0.001
1670265752.239991,-10.281,-0.293,2.435,0.009600000000000001,0.6701,0.1193,0.009000000000000001,-0.008,-0.001
1670265752.279991,-10.261000000000001,-0.308,2.432,0.011600000000000001,0.6681,0.12290000000000001,0.006,-0.019,-0.002
1670265752.3199909,-10.256,-0.275,2.45,0.010400000000000001,0.6699,0.1183,0.012,-0.011,-0.009000000000000001
1670265752.359991,-10.232000000000001,-0.315,2.427,0.0114,0.6684,0.1192,0.016,-0.02,-0.009000000000000001
1670265752.399991,-10.265,-0.336,2.463,0.011000000000000001,0.6681,0.11860000000000001,0.011,-0.021,-0.007
1670265752.439991,-10.268,-0.316,2.487,0.011300000000000001,0.67,0.11670000000000001,0.017,-0.018000000000000002,-0.005
1670265752.479991,-10.234,-0.325,2.41,0.0094,0.6697000000000001,0.1218,0.016,-0.012,0.0
1670265752.519991,-10.271,-0.324,2.435,0.0094,0.6692,0.11850000000000001,0.025,-0.017,-0.009000000000000001
1670265752.559991,-10.256,-0.341,2.472,0.012100000000000001,0.6714,0.11900000000000001,0.018000000000000002,-0.012,-0.01
1670265752.599991,-10.305,-0.382,2.47,0.0098,0.6704,0.11810000000000001,0.018000000000000002,-0.012,0.0
1670265752.639991,-10.252,-0.308,2.42,0.0099,0.6698000000000001,0.1197,0.017,-0.012,0.004
1670265752.679991,-10.296,-0.246,2.375,0.013300000000000001,0.6704,0.11810000000000001,0.028,-0.003,0.005
1670265752.719991,-10.246,-0.33,2.415,0.010400000000000001,0.6682,0.1173,0.029,-0.003,0.004
1670265752.759991,-10.226,-0.304,2.407,0.0083,0.6698000000000001,0.1208,0.021,-0.02,-0.009000000000000001
1670265752.799991,-10.237,-0.314,2.3850000000000002,0.009600000000000001,0.6704,0.1208,0.009000000000000001,-0.016,-0.004
1670265752.839991,-10.265,-0.294,2.403,0.012700000000000001,0.671,0.1148,0.018000000000000002,-0.012,-0.001
1670265752.879991,-10.314,-0.27,2.416,0.013600000000000001,0.6681,0.1189,0.012,-0.008,-0.004
1670265752.919991,-10.303,-0.389,2.456,0.0076,0.6699,0.11910000000000001,0.009000000000000001,-0.01,-0.007
1670265752.959991,-10.258000000000001,-0.259,2.471,0.012,0.6692,0.1187,0.018000000000000002,-0.021,-0.002
1670265752.99999,-10.247,-0.339,2.5020000000000002,0.0097,0.6714,0.11860000000000001,0.017,-0.015,-0.011
1670265753.03999,-10.26,-0.33,2.428,0.0119,0.6686000000000001,0.1192,0.017,-0.016,0.001
1670265753.07999,-10.233,-0.336,2.445,0.012100000000000001,0.6713,0.1165,0.014,-0.014,0.0
1670265753.1199899,-10.283,-0.28700000000000003,2.446,0.010700000000000001,0.6671,0.11670000000000001,0.026000000000000002,-0.01,-0.001
1670265753.15999,-10.257,-0.328,2.445,0.0109,0.6673,0.12040000000000001,0.026000000000000002,-0.007,0.0
1670265753.19999,-10.252,-0.34600000000000003,2.422,0.0123,0.6684,0.12090000000000001,0.014,-0.001,-0.002
1670265753.23999,-10.265,-0.333,2.424,0.0143,0.6711,0.11810000000000001,0.007,-0.012,-0.001
1670265753.27999,-10.289,-0.294,2.423,0.001,0.6681,0.1222,0.016,-0.008,-0.001
1670265753.31999,-10.278,-0.307,2.392,0.0089,0.6705,0.1187,0.018000000000000002,-0.019,-0.003
1670265753.35999,-10.267,-0.32,2.398,0.008400000000000001,0.671,0.1182,0.02,-0.02,-0.002
1670265753.39999,-10.238,-0.327,2.419,0.012700000000000001,0.6707000000000001,0.1198,0.017,-0.012,-0.003
1670265753.43999,-10.278,-0.319,2.436,0.0125,0.6698000000000001,0.12090000000000001,0.013000000000000001,-0.016,0.0
1670265753.47999,-10.311,-0.311,2.433,0.013800000000000002,0.6694,0.1199,0.014,-0.012,0.001
1670265753.51999,-10.246,-0.298,2.463,0.0109,0.6695,0.126,0.016,-0.012,-0.002
1670265753.55999,-10.282,-0.322,2.396,0.013000000000000001,0.671,0.12100000000000001,0.012,-0.014,-0.001
1670265753.59999,-10.272,-0.321,2.441,0.0115,0.6679,0.1187,0.003,-0.009000000000000001,-0.002
1670265753.63999,-10.290000000000001,-0.368,2.41,0.0112,0.6718000000000001,0.1173,-0.002,-0.013000000000000001,-0.001
1670265753.67999,-10.297,-0.327,2.444,0.009000000000000001,0.6707000000000001,0.1184,0.013000000000000001,-0.014,0.003
1670265753.71999,-10.293000000000001,-0.252,2.403,0.0088,0.6727000000000001,0.1394,0.019,-0.007,0.0
1670265753.75999,-10.272,-0.366,2.424,0.9988,0.6689,0.0978,0.014,-0.012,-0.008
1670265753.79999,-10.234,-0.322,2.406,0.0103,0.6719,0.127,-0.002,-0.012,0.006
1670265753.83999,-10.301,-0.34400000000000003,2.375,0.012400000000000001,0.6706000000000001,0.13440000000000002,0.003,-0.008,0.004
1670265753.87999,-10.328,-0.383,2.357,0.0146,0.6725,0.1203,-0.014,-0.004,-0.003
1670265753.91999,-10.341000000000001,-0.458,2.403,0.014,0.6686000000000001,0.1187,-0.04,0.003,0.006
1670265753.95999,-10.265,-0.331,2.481,0.013000000000000001,0.6693,0.1197,-0.055,0.003,0.013000000000000001
1670265753.99999,-10.28,-0.422,2.36,0.0135,0.6717000000000001,0.11860000000000001,-0.059000000000000004,0.018000000000000002,0.014
1670265754.039989,-10.304,-0.371,2.346,0.0108,0.6683,0.11900000000000001,-0.058,0.02,0.018000000000000002
1670265754.079989,-10.301,-0.34500000000000003,2.2880000000000003,0.0132,0.6722,0.1169,-0.058,0.017,0.036000000000000004
1670265754.119989,-10.284,-0.295,2.343,0.013000000000000001,0.6722,0.11670000000000001,-0.044,0.0,0.027
1670265754.1599889,-10.290000000000001,-0.387,2.325,0.0151,0.673,0.1145,-0.04,-0.009000000000000001,0.016
1670265754.199989,-10.289,-0.425,2.346,0.016300000000000002,0.6717000000000001,0.1154,-0.07,-0.011,0.032
1670265754.239989,-10.253,-0.328,2.3770000000000002,0.014400000000000001,0.6712,0.11510000000000001,-0.09,-0.006,0.048
1670265754.279989,-10.262,-0.281,2.382,0.0142,0.6718000000000001,0.1134,-0.07200000000000001,0.0,0.038
1670265754.319989,-10.262,-0.292,2.357,0.0154,0.6733,0.1155,-0.065,-0.012,0.027
1670265754.359989,-10.25,-0.326,2.427,0.0146,0.6734,0.11230000000000001,-0.065,-0.036000000000000004,0.024
1670265754.399989,-10.262,-0.311,2.494,0.0126,0.6712,0.11710000000000001,-0.074,-0.031,0.033
1670265754.439989,-10.275,-0.256,2.47,0.0137,0.6712,0.1121,-0.062,-0.013000000000000001,0.034
1670265754.479989,-10.238,-0.227,2.453,0.0159,0.672,0.11180000000000001,-0.061,0.003,0.049
1670265754.519989,-10.269,-0.20700000000000002,2.412,0.016800000000000002,0.6696000000000001,0.1111,-0.042,0.019,0.048
1670265754.559989,-10.302,-0.132,2.365,0.0173,0.6673,0.11570000000000001,-0.012,0.025,0.039
1670265754.599989,-10.296,-0.158,2.3810000000000002,0.0173,0.6671,0.11370000000000001,0.003,0.02,0.016
1670265754.639989,-10.297,-0.165,2.275,0.0164,0.6694,0.1092,0.009000000000000001,0.015,0.018000000000000002
1670265754.679989,-10.256,-0.20800000000000002,2.192,0.0151,0.6696000000000001,0.11280000000000001,-0.008,0.012,0.02
1670265754.719989,-10.317,-0.164,2.2560000000000002,0.0193,0.6662,0.11220000000000001,-0.002,0.015,0.023
1670265754.759989,-10.35,-0.079,2.281,0.016300000000000002,0.6699,0.1124,0.042,0.005,-0.006
1670265754.799989,-10.249,-0.216,2.24,0.018600000000000002,0.667,0.1109,0.045,-0.014,-0.027
1670265754.839989,-10.257,-0.25,2.205,0.0172,0.6717000000000001,0.11230000000000001,0.028,-0.043000000000000003,-0.025
1670265754.879989,-10.261000000000001,-0.23800000000000002,2.274,0.0159,0.6679,0.11270000000000001,0.025,-0.036000000000000004,-0.023
1670265754.919989,-10.328,-0.234,2.352,0.016800000000000002,0.6705,0.1101,0.045,-0.032,-0.029
1670265754.959989,-10.222,-0.27,2.383,0.0152,0.6715,0.112,0.047,-0.038,-0.038
1670265754.999989,-10.252,-0.294,2.3970000000000002,0.0152,0.6682,0.11280000000000001,0.045,-0.024,-0.013000000000000001
1670265755.039989,-10.346,-0.326,2.324,0.0171,0.6705,0.111,0.03,-0.018000000000000002,-0.01
1670265755.079988,-10.34,-0.297,2.391,0.014,0.6698000000000001,0.1129,0.026000000000000002,-0.006,-0.002
1670265755.119988,-10.244,-0.305,2.402,0.0134,0.6712,0.11130000000000001,0.014,0.0,0.01
1670265755.159988,-10.347,-0.252,2.302,0.0173,0.6701,0.11380000000000001,0.028,-0.009000000000000001,0.008
1670265755.199988,-10.3,-0.25,2.344,0.014400000000000001,0.6698000000000001,0.11080000000000001,0.041,-0.006,-0.007
1670265755.239988,-10.246,-0.319,2.346,0.016800000000000002,0.6726000000000001,0.1096,0.029,-0.014,-0.004
1670265755.279988,-10.273,-0.315,2.319,0.0043,0.6675,0.11960000000000001,0.007,-0.016,0.001
1670265755.319988,-10.301,-0.262,2.2960000000000003,0.0187,0.6692,0.1121,0.009000000000000001,-0.017,-0.007
1670265755.359988,-10.31,-0.281,2.2720000000000002,0.016,0.6713,0.10880000000000001,0.012,-0.01,-0.003
1670265755.399988,-10.255,-0.253,2.295,0.0172,0.668,0.10940000000000001,0.027,-0.016,0.0
1670265755.439988,-10.248,-0.263,2.307,0.0154,0.6703,0.1131,0.031,-0.027,-0.007
1670265755.479988,-10.284,-0.28700000000000003,2.346,0.0143,0.6726000000000001,0.11040000000000001,0.026000000000000002,-0.04,-0.008
1670265755.519988,-10.269,-0.292,2.388,0.0129,0.6722,0.11660000000000001,0.019,-0.035,0.0
1670265755.559988,-10.307,-0.273,2.329,0.0154,0.6689,0.12240000000000001,0.017,-0.021,0.005
1670265755.599988,-10.326,-0.266,2.39,0.0082,0.6656000000000001,0.12440000000000001,0.02,-0.028,-0.005
1670265755.639988,-10.315,-0.44,2.368,0.016900000000000002,0.6684,0.1182,0.013000000000000001,-0.017,-0.004
1670265755.679988,-10.328,-0.464,2.266,0.0131,0.6688000000000001,0.1317,-0.059000000000000004,0.004,0.027
1670265755.719988,-10.336,-0.277,2.278,0.0154,0.6701,0.1115,-0.108,0.023,0.047
1670265755.759988,-10.279,-0.317,2.286,0.0196,0.6687000000000001,0.1095,-0.134,0.04,0.057
1670265755.799988,-10.236,-0.264,2.231,0.016900000000000002,0.6707000000000001,0.1121,-0.14300000000000002,0.026000000000000002,0.034
1670265755.839988,-10.337,-0.218,2.178,0.0175,0.671,0.11120000000000001,-0.14200000000000002,0.0,0.042
1670265755.879988,-10.319,-0.20800000000000002,2.253,0.0151,0.6677000000000001,0.1121,-0.111,-0.018000000000000002,0.024
1670265755.919988,-10.241,-0.149,2.275,0.0198,0.6686000000000001,0.1082,-0.08,-0.036000000000000004,0.0
1670265755.959988,-10.24,-0.228,2.374,0.0172,0.6693,0.10690000000000001,-0.025,-0.066,-0.006
1670265755.999988,-10.268,-0.272,2.378,0.0159,0.6697000000000001,0.10700000000000001,-0.017,-0.085,0.012
1670265756.039988,-10.326,-0.275,2.479,0.0181,0.6682,0.1091,-0.016,-0.056,0.014
1670265756.079988,-10.32,-0.14,2.453,0.0176,0.6678000000000001,0.112,-0.01,-0.023,0.038
1670265756.119987,-10.274000000000001,-0.068,2.439,0.019,0.6667000000000001,0.1102,0.021,0.016,0.054
1670265756.159987,-10.262,-0.08700000000000001,2.351,0.018500000000000003,0.6703,0.10700000000000001,0.043000000000000003,0.049,0.032
1670265756.199987,-10.290000000000001,-0.161,2.212,0.019700000000000002,0.6656000000000001,0.10930000000000001,0.026000000000000002,0.046,0.013000000000000001
1670265756.239987,-10.282,-0.245,2.224,0.0187,0.6674,0.1053,-0.02,0.014,-0.002
1670265756.279987,-10.272,-0.28400000000000003,2.23,0.0162,0.667,0.1076,-0.073,-0.031,-0.015
1670265756.319987,-10.36,-0.326,2.32,0.0166,0.6685,0.10540000000000001,-0.128,-0.047,-0.009000000000000001
1670265756.359987,-10.314,-0.224,2.2960000000000003,0.0182,0.6709,0.1046,-0.136,-0.034,-0.007
1670265756.399987,-10.313,-0.226,2.354,0.018500000000000003,0.669,0.1046,-0.10200000000000001,-0.003,0.002
1670265756.439987,-10.308,-0.257,2.215,0.0181,0.6718000000000001,0.1062,-0.067,0.017,0.024
1670265756.479987,-10.299,-0.268,2.1510000000000002,0.0184,0.6707000000000001,0.1051,-0.046,0.016,0.034
1670265756.519987,-10.261000000000001,-0.263,2.248,0.0193,0.6686000000000001,0.10260000000000001,-0.051000000000000004,-0.002,0.036000000000000004
1670265756.559987,-10.32,-0.214,2.294,0.0224,0.6694,0.10350000000000001,-0.046,-0.021,0.026000000000000002
1670265756.599987,-10.311,-0.123,2.317,0.0167,0.6698000000000001,0.101,-0.02,-0.037,0.025
1670265756.639987,-10.28,0.014,2.384,0.021,0.6693,0.10500000000000001,0.039,-0.046,0.009000000000000001
1670265756.679987,-10.290000000000001,-0.08700000000000001,2.391,0.0201,0.6677000000000001,0.1033,0.077,-0.043000000000000003,-0.008
1670265756.719987,-10.313,-0.192,2.4090000000000003,0.0183,0.6701,0.10310000000000001,0.069,-0.04,-0.013000000000000001
1670265756.759987,-10.247,-0.17400000000000002,2.463,0.0194,0.6703,0.1034,0.051000000000000004,-0.046,-0.003
1670265756.799987,-10.296,-0.123,2.47,0.0184,0.665,0.1032,0.039,-0.011,0.005
1670265756.839987,-10.306000000000001,-0.046,2.354,0.0166,0.6689,0.10200000000000001,0.05,0.017,0.0
1670265756.879987,-10.349,-0.031,2.3040000000000003,0.016900000000000002,0.6679,0.1042,0.083,0.036000000000000004,-0.012
1670265756.919987,-10.333,-0.214,2.306,0.0189,0.6667000000000001,0.10650000000000001,0.066,0.024,-0.024
1670265756.959987,-10.298,-0.155,2.266,0.0194,0.6658000000000001,0.1072,0.034,0.001,-0.018000000000000002
1670265756.999987,-10.317,-0.187,2.2560000000000002,0.016900000000000002,0.6662,0.1048,0.026000000000000002,-0.002,-0.028
1670265757.0399868,-10.295,-0.159,2.166,0.0173,0.6702,0.1038,0.038,-0.009000000000000001,-0.023
1670265757.079987,-10.317,-0.247,2.25,0.017400000000000002,0.6705,0.1067,0.038,-0.027,-0.037
1670265757.119987,-10.319,-0.229,2.302,0.0176,0.6704,0.1057,0.05,-0.033,-0.033
1670265757.159986,-10.308,-0.266,2.322,0.0196,0.6701,0.1051,0.059000000000000004,-0.036000000000000004,-0.027
1670265757.199986,-10.3,-0.28400000000000003,2.327,0.0188,0.6671,0.1067,0.055,-0.041,-0.033
1670265757.239986,-10.291,-0.299,2.3810000000000002,0.0187,0.6679,0.1067,0.058,-0.027,-0.018000000000000002
1670265757.279986,-10.286,-0.272,2.403,0.0132,0.6668000000000001,0.108,0.059000000000000004,-0.017,0.002
1670265757.319986,-10.3,-0.256,2.4050000000000002,0.016900000000000002,0.6695,0.1048,0.062,-0.014,-0.005
1670265757.359986,-10.284,-0.252,2.358,0.015600000000000001,0.6662,0.10840000000000001,0.058,0.0,0.004
1670265757.399986,-10.307,-0.23700000000000002,2.317,0.0179,0.6699,0.10740000000000001,0.051000000000000004,0.003,0.011
1670265757.439986,-10.288,-0.176,2.309,0.016800000000000002,0.6678000000000001,0.1116,0.054,0.003,0.003
1670265757.479986,-10.328,-0.155,2.282,0.0145,0.6692,0.0849,0.05,-0.002,0.005
1670265757.519986,-10.304,-0.179,2.265,0.016300000000000002,0.6686000000000001,0.12510000000000002,0.052000000000000005,0.0,-0.001
1670265757.559986,-10.288,-0.177,2.309,0.006,0.6633,0.1178,0.049,-0.017,-0.016
1670265757.599986,-10.276,-0.183,2.305,0.0182,0.669,0.1062,0.039,-0.026000000000000002,-0.016
1670265757.639986,-10.325000000000001,-0.211,2.32,0.0179,0.6697000000000001,0.10790000000000001,0.043000000000000003,-0.025,-0.017
1670265757.679986,-10.36,-0.19,2.4050000000000002,0.0184,0.6702,0.1076,0.043000000000000003,-0.019,-0.01
1670265757.719986,-10.289,-0.268,2.31,0.0162,0.6681,0.108,0.047,-0.02,-0.021
1670265757.759986,-10.287,-0.20700000000000002,2.366,0.016800000000000002,0.6671,0.1072,0.031,-0.022,-0.018000000000000002
1670265757.799986,-10.305,-0.217,2.331,0.016300000000000002,0.6693,0.10540000000000001,0.032,-0.012,-0.005
1670265757.8399858,-10.298,-0.226,2.317,0.0184,0.6712,0.109,0.05,0.009000000000000001,-0.013000000000000001
1670265757.879986,-10.237,-0.28800000000000003,2.297,0.0159,0.6692,0.10790000000000001,0.037,-0.007,-0.007
1670265757.919986,-10.271,-0.231,2.311,0.0179,0.67,0.1072,0.004,-0.018000000000000002,0.006
1670265757.959986,-10.356,-0.217,2.306,0.0176,0.6717000000000001,0.1095,0.021,-0.026000000000000002,0.0
1670265757.999986,-10.292,-0.189,2.348,0.0162,0.6692,0.1073,0.027,-0.022,-0.01
1670265758.039986,-10.31,-0.223,2.278,0.0181,0.6698000000000001,0.1056,0.034,-0.014,0.005
1670265758.0799859,-10.290000000000001,-0.188,2.299,0.017400000000000002,0.6674,0.1091,0.015,-0.018000000000000002,0.002
1670265758.119986,-10.304,-0.177,2.367,0.017400000000000002,0.6691,0.1077,0.037,-0.018000000000000002,-0.003
1670265758.159986,-10.308,-0.217,2.35,0.0179,0.6698000000000001,0.10790000000000001,0.035,-0.011,-0.005
1670265758.199986,-10.325000000000001,-0.225,2.2800000000000002,0.018000000000000002,0.6688000000000001,0.10740000000000001,0.005,-0.017,-0.005
1670265758.239986,-10.297,-0.2,2.33,0.0181,0.6678000000000001,0.1046,0.004,-0.01,0.0
1670265758.279985,-10.277000000000001,-0.20500000000000002,2.303,0.016900000000000002,0.6718000000000001,0.10930000000000001,0.01,-0.018000000000000002,-0.009000000000000001
1670265758.319985,-10.305,-0.216,2.319,0.0171,0.6679,0.1082,0.021,-0.018000000000000002,-0.007
1670265758.359985,-10.289,-0.23800000000000002,2.372,0.0155,0.668,0.1091,0.016,-0.025,-0.009000000000000001
1670265758.399985,-10.314,-0.197,2.363,0.0189,0.6694,0.1063,0.019,-0.016,-0.002
1670265758.439985,-10.298,-0.192,2.32,0.019100000000000002,0.6687000000000001,0.1101,0.028,-0.014,0.001
1670265758.479985,-10.271,-0.234,2.382,0.0173,0.6693,0.11130000000000001,0.019,-0.015,-0.001
1670265758.519985,-10.262,-0.225,2.329,0.0173,0.6682,0.10830000000000001,0.013000000000000001,-0.013000000000000001,-0.005
1670265758.559985,-10.273,-0.17500000000000002,2.374,0.0173,0.6681,0.11040000000000001,0.015,-0.018000000000000002,0.003
1670265758.599985,-10.262,-0.197,2.347,0.016900000000000002,0.6689,0.1057,0.014,-0.019,-0.011
1670265758.6399848,-10.327,-0.222,2.384,0.017400000000000002,0.6679,0.10840000000000001,0.01,-0.006,0.004
1670265758.679985,-10.317,-0.22,2.388,0.0173,0.6676000000000001,0.1068,0.018000000000000002,-0.006,0.007
1670265758.719985,-10.258000000000001,-0.184,2.312,0.0213,0.67,0.1097,0.026000000000000002,-0.014,-0.015
1670265758.759985,-10.308,-0.202,2.312,0.016800000000000002,0.6698000000000001,0.1095,0.022,-0.01,-0.002
1670265758.799985,-10.317,-0.231,2.302,0.0085,0.6655,0.11750000000000001,0.013000000000000001,-0.008,0.0
1670265758.839985,-10.313,-0.186,2.354,0.0201,0.6678000000000001,0.1077,0.021,-0.011,0.0
1670265758.8799849,-10.284,-0.278,2.326,0.0148,0.6684,0.10740000000000001,0.013000000000000001,-0.011,-0.009000000000000001
1670265758.919985,-10.286,-0.17300000000000001,2.324,0.0176,0.6695,0.1086,0.02,-0.026000000000000002,-0.002
1670265758.959985,-10.318,-0.196,2.3970000000000002,0.0184,0.6674,0.10840000000000001,0.022,-0.015,-0.006
1670265758.999985,-10.311,-0.193,2.333,0.0187,0.669,0.1072,0.022,-0.005,-0.001
1670265759.039985,-10.293000000000001,-0.213,2.375,0.014,0.6698000000000001,0.1077,0.024,-0.011,0.01
1670265759.079985,-10.313,-0.182,2.352,0.017400000000000002,0.6664,0.111,0.022,-0.012,0.002
1670265759.1199849,-10.325000000000001,-0.182,2.378,0.0018000000000000002,0.6619,0.11810000000000001,0.024,-0.017,0.0
1670265759.159985,-10.307,-0.196,2.3000000000000003,0.015000000000000001,0.6671,0.1058,0.019,-0.019,-0.009000000000000001
1670265759.199985,-10.308,-0.221,2.257,0.0159,0.6677000000000001,0.109,0.015,-0.017,-0.007
1670265759.239985,-10.304,-0.21,2.289,0.016900000000000002,0.6671,0.1077,0.005,-0.012,-0.002
1670265759.279985,-10.321,-0.20800000000000002,2.336,0.014,0.6685,0.0974,0.015,-0.016,-0.009000000000000001
1670265759.319984,-10.283,-0.189,2.31,0.0161,0.6696000000000001,0.10020000000000001,0.021,-0.02,-0.013000000000000001
1670265759.359984,-10.283,-0.223,2.404,0.0151,0.6659,0.094,0.012,-0.017,-0.007
1670265759.399984,-10.287,-0.20800000000000002,2.374,0.015300000000000001,0.6675,0.11560000000000001,0.014,-0.014,-0.008
1670265759.4399838,-10.295,-0.201,2.36,0.018500000000000003,0.6692,0.1082,0.019,-0.016,-0.008
1670265759.479984,-10.290000000000001,-0.252,2.309,0.0149,0.6705,0.10700000000000001,0.018000000000000002,-0.021,-0.003
1670265759.519984,-10.273,-0.22,2.341,0.0187,0.672,0.1067,0.013000000000000001,-0.018000000000000002,-0.003
1670265759.559984,-10.258000000000001,-0.192,2.384,0.017400000000000002,0.6681,0.1052,0.007,-0.009000000000000001,0.0
1670265759.599984,-10.324,-0.20800000000000002,2.332,0.0162,0.6657000000000001,0.11180000000000001,0.017,-0.008,-0.003
1670265759.639984,-10.316,-0.23900000000000002,2.371,0.016900000000000002,0.6706000000000001,0.10790000000000001,0.019,-0.003,0.006
1670265759.6799839,-10.287,-0.222,2.2920000000000003,0.0167,0.6689,0.1068,0.018000000000000002,-0.01,-0.009000000000000001
1670265759.719984,-10.235,-0.211,2.345,0.0178,0.6681,0.1082,0.013000000000000001,-0.02,-0.003
1670265759.759984,-10.287,-0.20400000000000001,2.336,0.0173,0.6712,0.1085,0.015,-0.015,0.004
1670265759.799984,-10.31,-0.187,2.3810000000000002,0.0175,0.6674,0.1073,0.016,-0.013000000000000001,0.001
1670265759.839984,-10.329,-0.28,2.342,0.015000000000000001,0.67,0.10790000000000001,0.019,-0.02,-0.012
1670265759.879984,-10.256,-0.157,2.374,0.0165,0.6697000000000001,0.10790000000000001,0.015,-0.018000000000000002,0.0
1670265759.9199839,-10.326,-0.225,2.374,0.016900000000000002,0.6679,0.1076,0.025,-0.018000000000000002,0.0
1670265759.959984,-10.273,-0.231,2.365,0.017400000000000002,0.6695,0.1077,0.027,-0.001,-0.008
1670265759.999984,-10.289,-0.259,2.371,0.0161,0.6706000000000001,0.1085,0.015,-0.007,0.01
1670265760.039984,-10.266,-0.183,2.403,0.018000000000000002,0.6689,0.1096,0.018000000000000002,-0.009000000000000001,0.005
1670265760.079984,-10.331,-0.185,2.333,0.0179,0.6703,0.1085,0.032,-0.004,-0.004
1670265760.119984,-10.269,-0.256,2.326,0.013300000000000001,0.6701,0.10940000000000001,0.023,-0.014,-0.006
1670265760.1599839,-10.295,-0.23800000000000002,2.34,0.0149,0.6687000000000001,0.1067,0.002,-0.015,0.002
1670265760.199984,-10.271,-0.199,2.33,0.0188,0.6717000000000001,0.10490000000000001,0.011,-0.011,-0.001
1670265760.239984,-10.252,-0.223,2.319,0.0184,0.6711,0.1082,0.017,-0.014,-0.004
1670265760.279984,-10.322000000000001,-0.20600000000000002,2.354,0.018000000000000002,0.6677000000000001,0.1077,0.023,-0.02,-0.006
1670265760.319984,-10.317,-0.22,2.341,0.016800000000000002,0.6698000000000001,0.11,0.011,-0.019,0.0
1670265760.359983,-10.292,-0.23500000000000001,2.339,0.012700000000000001,0.6706000000000001,0.108,0.015,-0.025,-0.006
1670265760.399983,-10.286,-0.217,2.383,0.017400000000000002,0.6699,0.1066,0.021,-0.016,-0.001
1670265760.439983,-10.261000000000001,-0.228,2.369,0.0165,0.6681,0.1068,0.022,-0.012,0.0
1670265760.4799829,-10.293000000000001,-0.198,2.391,0.0173,0.6681,0.11030000000000001,0.02,-0.017,-0.005
1670265760.519983,-10.274000000000001,-0.23700000000000002,2.351,0.0179,0.6686000000000001,0.10840000000000001,0.018000000000000002,-0.01,-0.006
1670265760.559983,-10.274000000000001,-0.234,2.36,0.0154,0.6683,0.1062,0.008,-0.016,0.007
1670265760.599983,-10.225,-0.195,2.324,0.017,0.6686000000000001,0.109,0.007,-0.009000000000000001,-0.002
1670265760.639983,-10.297,-0.202,2.323,0.0119,0.6708000000000001,0.10880000000000001,0.025,-0.01,0.006
1670265760.679983,-10.309000000000001,-0.276,2.325,0.017,0.6704,0.1076,0.021,-0.003,0.0
1670265760.7199829,-10.234,-0.191,2.277,0.0165,0.6685,0.1071,0.028,-0.026000000000000002,-0.01
1670265760.759983,-10.316,-0.231,2.238,0.0184,0.6712,0.1087,0.026000000000000002,-0.023,-0.006
1670265760.799983,-10.292,-0.226,2.344,0.0177,0.6684,0.1072,0.014,-0.015,0.0
1670265760.839983,-10.326,-0.20800000000000002,2.333,0.015600000000000001,0.671,0.10790000000000001,0.021,-0.01,-0.002
1670265760.879983,-10.283,-0.267,2.407,0.0126,0.6715,0.1071,0.008,-0.013000000000000001,-0.005
1670265760.919983,-10.261000000000001,-0.159,2.398,0.018000000000000002,0.6692,0.1073,0.014,-0.019,0.0
1670265760.9599829,-10.315,-0.232,2.386,0.019700000000000002,0.6702,0.10740000000000001,0.022,-0.009000000000000001,-0.008
1670265760.999983,-10.331,-0.23500000000000001,2.3850000000000002,0.015700000000000002,0.6693,0.1071,0.021,-0.005,0.004
1670265761.039983,-10.276,-0.251,2.314,0.0154,0.669,0.1068,0.017,-0.018000000000000002,0.003
1670265761.079983,-10.326,-0.171,2.332,0.015700000000000002,0.6671,0.10830000000000001,0.024,-0.011,0.002
1670265761.119983,-10.277000000000001,-0.20400000000000001,2.335,0.0071,0.6663,0.096,0.027,-0.011,-0.008
1670265761.159983,-10.291,-0.246,2.275,0.014700000000000001,0.6698000000000001,0.10980000000000001,0.018000000000000002,-0.013000000000000001,-0.006
1670265761.199983,-10.298,-0.201,2.294,0.0146,0.6683,0.093,0.004,-0.015,-0.003
1670265761.239983,-10.281,-0.20700000000000002,2.324,0.012400000000000001,0.6689,0.1155,0.016,-0.009000000000000001,-0.007
1670265761.279983,-10.328,-0.243,2.2600000000000002,0.0171,0.6698000000000001,0.1073,0.024,-0.023,-0.01
1670265761.319983,-10.313,-0.226,2.314,0.0173,0.6693,0.10650000000000001,0.017,-0.023,-0.003
1670265761.359983,-10.305,-0.232,2.345,0.0164,0.6676000000000001,0.10830000000000001,0.02,-0.022,0.0
1670265761.399982,-10.299,-0.261,2.29,0.0176,0.6695,0.1057,0.03,-0.023,-0.004
1670265761.439982,-10.276,-0.21,2.42,0.0176,0.6683,0.10550000000000001,0.02,-0.018000000000000002,0.006
1670265761.479982,-10.315,-0.20500000000000002,2.34,0.017400000000000002,0.6672,0.10700000000000001,0.027,-0.014,0.003
1670265761.5199819,-10.259,-0.225,2.374,0.0165,0.6668000000000001,0.1068,0.036000000000000004,-0.01,-0.004
1670265761.559982,-10.317,-0.20400000000000001,2.35,0.014400000000000001,0.6688000000000001,0.1061,0.026000000000000002,-0.016,-0.005
1670265761.599982,-10.284,-0.23800000000000002,2.326,0.0164,0.6678000000000001,0.10980000000000001,0.013000000000000001,-0.007,0.001
1670265761.639982,-10.335,-0.226,2.314,0.0146,0.6699,0.1095,0.023,-0.015,-0.006
1670265761.679982,-10.358,-0.138,2.384,0.0152,0.6687000000000001,0.1072,0.021,-0.007,0.0
1670265761.719982,-10.299,-0.229,2.353,0.0167,0.67,0.1085,0.028,-0.003,-0.004
1670265761.7599819,-10.267,-0.198,2.3000000000000003,0.0165,0.6684,0.10880000000000001,0.017,-0.013000000000000001,0.0
1670265761.799982,-10.297,-0.20500000000000002,2.2920000000000003,0.017400000000000002,0.668,0.1051,0.008,-0.018000000000000002,0.0
1670265761.839982,-10.307,-0.20700000000000002,2.378,0.0181,0.669,0.1082,0.016,-0.012,-0.009000000000000001
1670265761.879982,-10.289,-0.192,2.386,0.0175,0.6695,0.1102,0.02,-0.01,-0.012
1670265761.919982,-10.27,-0.259,2.326,0.0165,0.6703,0.1116,0.01,-0.023,-0.004
1670265761.959982,-10.31,-0.218,2.342,0.018000000000000002,0.6711,0.1078,0.026000000000000002,-0.017,-0.001
1670265761.9999819,-10.313,-0.248,2.362,0.0181,0.6708000000000001,0.1073,0.021,-0.012,-0.009000000000000001
1670265762.039982,-10.297,-0.229,2.369,0.0154,0.6667000000000001,0.1072,0.02,-0.015,0.003
1670265762.079982,-10.292,-0.185,2.347,0.0166,0.6692,0.10590000000000001,0.03,-0.018000000000000002,0.002
1670265762.119982,-10.317,-0.178,2.3040000000000003,0.016900000000000002,0.6692,0.108,0.042,-0.016,0.001
1670265762.159982,-10.297,-0.214,2.32,0.015000000000000001,0.6712,0.1068,0.035,-0.016,-0.004
1670265762.199982,-10.285,-0.20800000000000002,2.327,0.0155,0.6683,0.10790000000000001,0.013000000000000001,-0.007,0.0
1670265762.239982,-10.295,-0.20500000000000002,2.32,0.016,0.6681,0.10790000000000001,0.006,-0.01,-0.003
1670265762.279982,-10.288,-0.20600000000000002,2.333,0.0177,0.6701,0.1095,0.01,-0.016,-0.008
1670265762.319982,-10.314,-0.189,2.357,0.017400000000000002,0.6685,0.10740000000000001,0.012,-0.017,-0.012
1670265762.359982,-10.311,-0.198,2.335,0.016900000000000002,0.6714,0.1048,0.017,-0.021,-0.014
1670265762.399982,-10.251,-0.213,2.372,0.0171,0.6671,0.11280000000000001,0.02,-0.026000000000000002,-0.009000000000000001
1670265762.439981,-10.317,-0.222,2.328,0.0188,0.6676000000000001,0.10930000000000001,0.024,-0.027,-0.006
1670265762.479981,-10.294,-0.234,2.347,0.0194,0.6679,0.1058,0.017,-0.012,-0.005
1670265762.519981,-10.24,-0.23,2.4,0.0198,0.67,0.11040000000000001,0.018000000000000002,-0.019,0.001
1670265762.5599809,-10.274000000000001,-0.20400000000000001,2.333,0.0184,0.6717000000000001,0.1091,0.018000000000000002,-0.009000000000000001,0.0
1670265762.599981,-10.283,-0.23,2.353,0.016900000000000002,0.6701,0.1071,0.004,-0.007,-0.002
1670265762.639981,-10.333,-0.254,2.341,0.0118,0.666,0.1189,0.001,0.001,0.009000000000000001
1670265762.679981,-10.31,-0.198,2.351,0.0166,0.6704,0.10690000000000001,0.028,-0.006,0.0
1670265762.719981,-10.272,-0.202,2.329,0.0196,0.6705,0.1072,0.028,-0.015,-0.007
1670265762.759981,-10.284,-0.226,2.354,0.016900000000000002,0.6712,0.1096,0.015,-0.018000000000000002,0.0
1670265762.7999809,-10.293000000000001,-0.222,2.289,0.0166,0.669,0.1057,0.012,-0.017,-0.001
1670265762.839981,-10.311,-0.189,2.308,0.019,0.6679,0.1095,0.02,-0.006,-0.003
1670265762.879981,-10.308,-0.274,2.412,0.012400000000000001,0.6667000000000001,0.1109,0.008,-0.013000000000000001,-0.003
1670265762.919981,-10.278,-0.199,2.356,0.0199,0.6676000000000001,0.1072,0.012,-0.019,0.002
1670265762.959981,-10.302,-0.197,2.4050000000000002,0.0183,0.666,0.1226,0.013000000000000001,-0.006,-0.006
1670265762.999981,-10.292,-0.179,2.356,0.016900000000000002,0.6669,0.0863,0.019,-0.01,0.001
1670265763.039981,-10.259,-0.199,2.38,0.019,0.666,0.1174,0.02,-0.013000000000000001,0.004
1670265763.079981,-10.328,-0.188,2.326,0.0183,0.6667000000000001,0.11560000000000001,0.023,-0.009000000000000001,-0.002
1670265763.119981,-10.262,-0.20700000000000002,2.39,0.0206,0.6678000000000001,0.1189,0.017,-0.015,-0.003
1670265763.159981,-10.302,-0.234,2.312,0.0198,0.6681,0.11030000000000001,0.007,-0.008,-0.005
1670265763.199981,-10.286,-0.229,2.344,0.0181,0.6692,0.10640000000000001,0.004,-0.008,0.0
1670265763.239981,-10.315,-0.209,2.318,0.018000000000000002,0.6697000000000001,0.1062,0.004,-0.009000000000000001,0.0
1670265763.279981,-10.281,-0.216,2.308,0.018000000000000002,0.6687000000000001,0.1109,0.009000000000000001,-0.015,-0.006
1670265763.319981,-10.278,-0.223,2.344,0.0173,0.6692,0.1086,0.012,-0.015,-0.001
1670265763.359981,-10.287,-0.241,2.324,0.0171,0.669,0.10980000000000001,0.021,-0.022,-0.003
1670265763.399981,-10.284,-0.222,2.357,0.0204,0.6685,0.115,0.017,-0.019,0.0
1670265763.439981,-10.281,-0.227,2.43,0.0175,0.6675,0.10700000000000001,0.022,-0.011,-0.003
1670265763.399981,-10.332,-0.213,2.315,0.0165,0.6682,0.108,0.026000000000000002,-0.02,-0.009000000000000001
1670265763.439981,-10.28,-0.202,2.4130000000000003,0.0178,0.6668000000000001,0.1068,0.036000000000000004,0.004,0.005
1670265763.47998,-10.364,-0.259,2.339,0.019,0.6706000000000001,0.1081,0.049,0.001,-0.01
1670265763.51998,-10.268,-0.083,2.3810000000000002,0.0176,0.6671,0.10890000000000001,0.097,0.037,0.01
1670265763.55998,-10.242,-0.396,2.2560000000000002,0.016800000000000002,0.6663,0.1102,-0.005,-0.021,-0.008
1670265763.5999799,-10.298,-0.185,2.289,0.015600000000000001,0.6664,0.1085,-0.046,-0.036000000000000004,-0.016
1670265763.63998,-10.289,-0.156,2.365,0.0165,0.6685,0.10690000000000001,-0.009000000000000001,-0.023,-0.003
1670265763.67998,-10.283,-0.199,2.335,0.018500000000000003,0.6668000000000001,0.1082,0.016,-0.013000000000000001,-0.01
1670265763.71998,-10.321,-0.214,2.286,0.0182,0.669,0.1095,0.014,-0.012,-0.001
1670265763.75998,-10.309000000000001,-0.273,2.324,0.019,0.6688000000000001,0.10830000000000001,0.0,-0.011,-0.005
1670265763.79998,-10.325000000000001,-0.16,2.373,0.018600000000000002,0.6706000000000001,0.1091,0.014,-0.015,0.0
1670265763.83998,-10.289,-0.244,2.36,0.019200000000000002,0.6688000000000001,0.1085,0.02,-0.011,-0.007
1670265763.87998,-10.313,-0.242,2.338,0.0154,0.6687000000000001,0.1096,0.014,-0.004,0.003
1670265763.91998,-10.284,-0.222,2.323,0.0179,0.6699,0.1068,0.011,-0.011,0.005
1670265763.95998,-10.307,-0.186,2.326,0.0187,0.6691,0.1081,0.026000000000000002,-0.015,-0.001
1670265763.99998,-10.297,-0.228,2.2960000000000003,0.018000000000000002,0.6695,0.1076,0.024,-0.008,0.0
1670265764.03998,-10.261000000000001,-0.256,2.3810000000000002,0.0165,0.6681,0.1073,0.018000000000000002,-0.009000000000000001,0.001
1670265764.07998,-10.295,-0.216,2.362,0.0164,0.6684,0.1058,0.004,-0.011,0.001
1670265764.11998,-10.304,-0.209,2.303,0.015700000000000002,0.6681,0.10650000000000001,0.011,-0.012,0.001
1670265764.15998,-10.33,-0.20400000000000001,2.321,0.0173,0.6686000000000001,0.1068,0.018000000000000002,-0.013000000000000001,-0.003
1670265764.19998,-10.28,-0.194,2.353,0.0171,0.6706000000000001,0.1061,0.022,-0.021,-0.011
1670265764.23998,-10.271,-0.232,2.338,0.02,0.669,0.1091,0.019,-0.019,-0.005
1670265764.27998,-10.322000000000001,-0.22,2.328,0.0177,0.669,0.10790000000000001,0.015,-0.022,0.002
1670265764.31998,-10.285,-0.217,2.375,0.018000000000000002,0.6699,0.1073,0.01,-0.011,0.004
1670265764.35998,-10.288,-0.218,2.32,0.0167,0.6674,0.10990000000000001,0.02,-0.008,-0.005
1670265764.39998,-10.325000000000001,-0.248,2.309,0.018500000000000003,0.67,0.1077,0.004,-0.016,0.0
1670265764.43998,-10.27,-0.23500000000000001,2.2920000000000003,0.018000000000000002,0.6702,0.1091,0.002,-0.017,-0.001
1670265764.47998,-10.285,-0.23500000000000001,2.341,0.0176,0.6692,0.10980000000000001,0.009000000000000001,-0.012,-0.006
1670265764.519979,-10.305,-0.254,2.335,0.019200000000000002,0.6674,0.1068,0.019,-0.015,-0.001
1670265764.559979,-10.368,-0.195,2.351,0.0118,0.6675,0.116,0.029,-0.002,-0.006
1670265764.599979,-10.287,-0.244,2.35,0.0152,0.6678000000000001,0.11570000000000001,0.025,-0.014,-0.007
1670265764.639979,-10.265,-0.225,2.27,0.0189,0.67,0.1048,0.005,-0.015,0.003
1670265764.679979,-10.274000000000001,-0.225,2.324,0.0183,0.6681,0.1077,0.019,-0.009000000000000001,-0.003
1670265764.719979,-10.295,-0.219,2.314,0.018000000000000002,0.6715,0.1116,0.021,-0.012,-0.003
1670265764.759979,-10.286,-0.214,2.378,0.0179,0.6679,0.0671,0.011,-0.01,-0.004
1670265764.799979,-10.253,-0.266,2.38,0.005,0.6693,0.0845,0.006,-0.023,0.005
1670265764.839979,-10.313,-0.25,2.281,0.016800000000000002,0.6687000000000001,0.1313,0.023,-0.003,-0.004
1670265764.879979,-10.255,-0.258,2.348,0.016900000000000002,0.6692,0.09570000000000001,0.021,-0.002,-0.009000000000000001
1670265764.919979,-10.28,-0.218,2.366,0.0205,0.6699,0.108,0.02,-0.013000000000000001,0.014
1670265764.959979,-10.334,-0.177,2.348,0.0165,0.67,0.1072,0.025,-0.015,0.004
1670265764.999979,-10.302,-0.247,2.285,0.0196,0.6686000000000001,0.1075,0.035,-0.007,0.003
1670265765.039979,-10.244,-0.253,2.371,0.0184,0.6711,0.10990000000000001,0.026000000000000002,-0.008,0.0
1670265765.079979,-10.329,-0.194,2.285,0.0195,0.6661,0.1096,0.013000000000000001,-0.017,0.001
1670265765.119979,-10.294,-0.178,2.324,0.0184,0.6695,0.10830000000000001,0.02,-0.011,-0.004
1670265765.159979,-10.304,-0.213,2.336,0.018000000000000002,0.6694,0.1082,0.023,-0.01,-0.008
1670265765.199979,-10.277000000000001,-0.20700000000000002,2.384,0.0175,0.6674,0.10590000000000001,0.02,-0.025,-0.004
1670265765.239979,-10.304,-0.213,2.341,0.019,0.67,0.1078,0.021,-0.02,-0.002
1670265765.279979,-10.301,-0.218,2.354,0.0184,0.6702,0.1097,0.013000000000000001,-0.016,-0.011
1670265765.319979,-10.296,-0.231,2.3000000000000003,0.0187,0.6703,0.108,0.014,-0.016,-0.009000000000000001
1670265765.359979,-10.284,-0.229,2.332,0.018500000000000003,0.6683,0.1085,0.021,-0.009000000000000001,-0.007
1670265765.399979,-10.312,-0.231,2.363,0.018000000000000002,0.6681,0.10740000000000001,0.017,-0.009000000000000001,-0.013000000000000001
1670265765.439979,-10.301,-0.226,2.314,0.0207,0.6692,0.1073,0.01,-0.015,-0.009000000000000001
1670265765.479979,-10.282,-0.265,2.357,0.0207,0.6684,0.1101,0.009000000000000001,-0.01,-0.002
1670265765.519979,-10.354000000000001,-0.27,2.297,0.0176,0.6706000000000001,0.10600000000000001,0.014,-0.011,-0.004
1670265765.559978,-10.349,-0.148,2.297,0.018500000000000003,0.6721,0.1048,0.025,-0.004,0.002
1670265765.599978,-10.27,-0.226,2.346,0.014400000000000001,0.6677000000000001,0.1096,0.027,-0.005,-0.001
1670265765.639978,-10.274000000000001,-0.184,2.317,0.0204,0.6675,0.1076,0.028,-0.012,-0.007
1670265765.679978,-10.295,-0.24,2.305,0.0199,0.6704,0.108,0.022,-0.019,-0.004
1670265765.719978,-10.313,-0.23800000000000002,2.384,0.0176,0.6716000000000001,0.1095,0.011,-0.015,-0.013000000000000001
1670265765.759978,-10.281,-0.197,2.369,0.0195,0.6707000000000001,0.1057,0.018000000000000002,-0.02,-0.009000000000000001
1670265765.799978,-10.252,-0.22,2.365,0.0201,0.67,0.1076,0.011,-0.023,-0.004
1670265765.839978,-10.299,-0.23800000000000002,2.3810000000000002,0.0182,0.6696000000000001,0.1092,0.018000000000000002,-0.022,-0.007
1670265765.879978,-10.31,-0.254,2.328,0.0178,0.6704,0.1087,0.021,-0.005,-0.006
1670265765.919978,-10.276,-0.231,2.315,0.018500000000000003,0.6676000000000001,0.1091,0.017,-0.013000000000000001,0.007
1670265765.959978,-10.275,-0.225,2.326,0.0189,0.67,0.109,0.011,-0.011,0.002
1670265765.999978,-10.341000000000001,-0.197,2.363,0.0201,0.6706000000000001,0.10880000000000001,0.029,-0.02,-0.006
1670265766.039978,-10.253,-0.25,2.371,0.020200000000000003,0.669,0.112,0.023,-0.017,-0.008
1670265766.079978,-10.249,-0.26,2.376,0.0199,0.6696000000000001,0.10790000000000001,0.002,-0.018000000000000002,0.0
1670265766.119978,-10.287,-0.247,2.344,0.0151,0.6692,0.10830000000000001,-0.01,-0.003,0.003
1670265766.159978,-10.311,-0.22,2.34,0.0172,0.6705,0.10840000000000001,0.007,-0.015,-0.004
1670265766.199978,-10.302,-0.198,2.354,0.0195,0.6706000000000001,0.10840000000000001,0.019,-0.013000000000000001,-0.003
1670265766.239978,-10.284,-0.244,2.322,0.0196,0.67,0.1087,0.023,-0.02,-0.013000000000000001
1670265766.279978,-10.284,-0.241,2.373,0.019,0.6707000000000001,0.108,0.017,-0.023,0.002
1670265766.319978,-10.296,-0.243,2.354,0.0115,0.6682,0.1091,0.021,-0.02,-0.002
1670265766.359978,-10.331,-0.209,2.382,0.0165,0.67,0.10650000000000001,0.029,-0.012,0.003
1670265766.399978,-10.313,-0.226,2.334,0.013300000000000001,0.6705,0.108,0.019,-0.014,-0.003
1670265766.439978,-10.32,-0.22,2.325,0.016800000000000002,0.6696000000000001,0.10640000000000001,0.018000000000000002,-0.012,0.004
1670265766.4799778,-10.299,-0.264,2.312,0.0199,0.6696000000000001,0.1077,0.016,-0.006,0.002
1670265766.519978,-10.287,-0.249,2.324,0.019700000000000002,0.669,0.1082,0.015,-0.005,-0.001
1670265766.559978,-10.351,-0.14400000000000002,2.372,0.0159,0.6687000000000001,0.13870000000000002,0.016,-0.006,0.007
1670265766.599977,-10.321,-0.23700000000000002,2.313,0.0193,0.6688000000000001,0.1274,0.024,-0.015,-0.009000000000000001
1670265766.639977,-10.268,-0.186,2.301,0.016,0.6682,0.1369,0.027,-0.018000000000000002,-0.002
1670265766.679977,-10.292,-0.226,2.323,0.014400000000000001,0.6692,0.095,0.009000000000000001,-0.012,-0.001
1670265766.719977,-10.34,-0.17200000000000001,2.327,0.019100000000000002,0.6707000000000001,0.1107,0.007,-0.009000000000000001,0.0
1670265766.759977,-10.344,-0.263,2.314,0.015700000000000002,0.6698000000000001,0.10690000000000001,0.017,-0.02,-0.013000000000000001
1670265766.799977,-10.285,-0.223,2.345,0.016800000000000002,0.669,0.1076,0.013000000000000001,-0.022,-0.005
1670265766.839977,-10.311,-0.254,2.314,0.011600000000000001,0.6659,0.11900000000000001,0.01,-0.013000000000000001,-0.009000000000000001
1670265766.879977,-10.273,-0.243,2.313,0.0183,0.6675,0.1067,0.017,-0.004,-0.003
1670265766.919977,-10.269,-0.254,2.319,0.016800000000000002,0.6708000000000001,0.1091,0.019,-0.014,0.001
1670265766.959977,-10.332,-0.215,2.327,0.0199,0.6704,0.1102,0.019,-0.019,-0.001
1670265766.999977,-10.313,-0.215,2.2960000000000003,0.0188,0.6694,0.10740000000000001,0.031,-0.009000000000000001,-0.001
1670265767.039977,-10.304,-0.243,2.362,0.0173,0.6691,0.10840000000000001,0.022,-0.012,0.0
1670265767.079977,-10.294,-0.233,2.309,0.0187,0.6681,0.1076,0.01,-0.006,0.0
1670265767.119977,-10.319,-0.219,2.3040000000000003,0.018500000000000003,0.6695,0.10830000000000001,0.009000000000000001,-0.011,-0.003
1670265767.159977,-10.284,-0.217,2.321,0.0184,0.6709,0.1057,0.014,-0.02,-0.006
1670265767.199977,-10.302,-0.225,2.303,0.0189,0.6702,0.1073,0.018000000000000002,-0.018000000000000002,-0.004
1670265767.239977,-10.322000000000001,-0.203,2.35,0.0176,0.6692,0.1066,0.018000000000000002,-0.023,-0.011
1670265767.2799768,-10.286,-0.202,2.382,0.016,0.6711,0.1116,0.021,-0.021,0.005
1670265767.319977,-10.304,-0.24,2.308,0.0159,0.67,0.10840000000000001,0.023,-0.01,0.003
1670265767.359977,-10.273,-0.22,2.351,0.0159,0.6686000000000001,0.10890000000000001,0.02,-0.013000000000000001,0.0
1670265767.399977,-10.298,-0.23,2.329,0.0184,0.6715,0.11040000000000001,0.026000000000000002,-0.013000000000000001,-0.005
1670265767.439977,-10.271,-0.24,2.3770000000000002,0.0164,0.6692,0.1068,0.007,-0.017,-0.007
1670265767.479977,-10.312,-0.278,2.339,0.0175,0.6701,0.1062,0.003,-0.009000000000000001,0.0
1670265767.5199769,-10.313,-0.27,2.361,0.0204,0.6703,0.10690000000000001,0.012,-0.008,-0.005
1670265767.559977,-10.357000000000001,-0.178,2.341,0.019100000000000002,0.6698000000000001,0.10790000000000001,0.015,-0.005,0.005
1670265767.599977,-10.3,-0.217,2.308,0.0193,0.6685,0.10700000000000001,0.023,-0.005,-0.003
1670265767.639977,-10.261000000000001,-0.221,2.239,0.019,0.67,0.1091,0.02,-0.013000000000000001,0.003
1670265767.679977,-10.291,-0.23500000000000001,2.294,0.0184,0.6705,0.1063,0.016,-0.014,0.003
1670265767.719976,-10.302,-0.20800000000000002,2.328,0.017400000000000002,0.6692,0.11030000000000001,0.023,-0.014,-0.006
1670265767.759976,-10.311,-0.20700000000000002,2.332,0.0167,0.6701,0.1073,0.019,-0.021,-0.004
1670265767.799976,-10.289,-0.271,2.353,0.0176,0.6684,0.1071,0.007,-0.022,-0.004
1670265767.839976,-10.313,-0.20800000000000002,2.314,0.0187,0.6684,0.1062,0.019,-0.014,0.001
1670265767.879976,-10.272,-0.253,2.306,0.0179,0.6697000000000001,0.1109,0.02,-0.01,-0.008
1670265767.919976,-10.281,-0.25,2.33,0.019100000000000002,0.6689,0.1073,0.018000000000000002,-0.006,0.008
1670265767.959976,-10.297,-0.214,2.362,0.016800000000000002,0.6673,0.10650000000000001,0.011,-0.019,0.0
1670265767.999976,-10.3,-0.21,2.338,0.019100000000000002,0.6681,0.11030000000000001,0.03,-0.014,-0.007
1670265768.039976,-10.315,-0.226,2.329,0.0167,0.6684,0.10990000000000001,0.022,-0.009000000000000001,-0.001
1670265768.0799758,-10.274000000000001,-0.259,2.314,0.008,0.6641,0.1189,0.007,-0.011,0.001
1670265768.119976,-10.32,-0.213,2.278,0.019700000000000002,0.6704,0.108,0.01,-0.008,0.001
1670265768.159976,-10.28,-0.222,2.343,0.018000000000000002,0.6698000000000001,0.10700000000000001,0.013000000000000001,-0.01,-0.005
1670265768.199976,-10.293000000000001,-0.233,2.309,0.0188,0.6734,0.10690000000000001,0.022,-0.018000000000000002,-0.005
1670265768.239976,-10.315,-0.23700000000000002,2.336,0.0195,0.6694,0.1097,0.019,-0.02,-0.002
1670265768.279976,-10.288,-0.244,2.294,0.015700000000000002,0.6701,0.10650000000000001,0.016,-0.022,-0.003
1670265768.3199759,-10.298,-0.226,2.35,0.0198,0.6675,0.1091,0.017,-0.015,-0.001
1670265768.359976,-10.28,-0.229,2.339,0.018600000000000002,0.6706000000000001,0.1077,0.017,-0.014,-0.003
1670265768.399976,-10.307,-0.229,2.321,0.0146,0.6686000000000001,0.11220000000000001,0.022,-0.005,0.006
1670265768.439976,-10.303,-0.20600000000000002,2.278,0.0171,0.6705,0.1207,0.022,-0.001,0.001
1670265768.479976,-10.303,-0.216,2.2720000000000002,0.015700000000000002,0.669,0.0896,0.016,-0.01,-0.006
1670265768.519976,-10.309000000000001,-0.24,2.312,0.0182,0.6684,0.11800000000000001,0.013000000000000001,-0.008,0.0
1670265768.5599759,-10.302,-0.243,2.366,0.0184,0.668,0.12300000000000001,0.022,-0.027,-0.004
1670265768.599976,-10.344,-0.163,2.325,0.014100000000000001,0.6676000000000001,0.08410000000000001,0.032,-0.02,0.0
1670265768.639976,-10.3,-0.262,2.33,0.0187,0.6689,0.108,0.034,-0.006,0.003
1670265768.679976,-10.309000000000001,-0.214,2.307,0.0179,0.6681,0.1096,0.02,-0.017,-0.008
1670265768.719976,-10.264,-0.213,2.339,0.017400000000000002,0.6693,0.1072,0.02,-0.016,0.0
1670265768.759975,-10.313,-0.219,2.394,0.0146,0.6695,0.11230000000000001,0.022,-0.015,-0.003
1670265768.799975,-10.304,-0.226,2.2960000000000003,0.016900000000000002,0.668,0.1061,0.021,-0.009000000000000001,-0.004
1670265768.839975,-10.33,-0.311,2.331,0.019100000000000002,0.6675,0.1081,0.005,-0.02,-0.009000000000000001
1670265768.879975,-10.306000000000001,-0.161,2.351,0.0184,0.668,0.10940000000000001,0.014,-0.027,-0.001
1670265768.919975,-10.298,-0.228,2.371,0.018000000000000002,0.6684,0.10700000000000001,0.026000000000000002,-0.01,-0.002
1670265768.959975,-10.306000000000001,-0.233,2.324,0.0187,0.669,0.10740000000000001,0.027,-0.01,0.0
1670265768.999975,-10.289,-0.232,2.338,0.0187,0.6673,0.1068,0.016,-0.006,0.013000000000000001
1670265769.039975,-10.313,-0.165,2.356,0.0173,0.6689,0.10980000000000001,0.027,-0.023,-0.004
1670265769.079975,-10.293000000000001,-0.211,2.382,0.020200000000000003,0.6703,0.11,0.035,-0.013000000000000001,-0.004
1670265769.1199749,-10.289,-0.243,2.366,0.019,0.6683,0.1062,0.019,-0.009000000000000001,-0.001
1670265769.159975,-10.308,-0.244,2.314,0.0187,0.6693,0.1116,0.014,-0.011,-0.007
1670265769.199975,-10.319,-0.187,2.341,0.0179,0.6678000000000001,0.10980000000000001,0.017,0.007,-0.004
1670265769.239975,-10.315,-0.247,2.285,0.019,0.6692,0.1061,0.008,-0.015,-0.017
1670265769.279975,-10.278,-0.241,2.354,0.0167,0.6701,0.10790000000000001,0.0,-0.023,-0.009000000000000001
1670265769.319975,-10.295,-0.232,2.382,0.0182,0.6676000000000001,0.1068,0.01,-0.029,-0.007
1670265769.3599749,-10.296,-0.232,2.333,0.0181,0.6692,0.108,0.023,-0.025,-0.001
1670265769.399975,-10.307,-0.24,2.326,0.016900000000000002,0.6671,0.1096,0.021,-0.02,-0.004
1670265769.439975,-10.275,-0.232,2.362,0.0196,0.6693,0.10690000000000001,0.016,-0.014,-0.003
1670265769.479975,-10.281,-0.253,2.36,0.016800000000000002,0.6691,0.10740000000000001,0.016,-0.013000000000000001,-0.003
1670265769.519975,-10.303,-0.257,2.329,0.018600000000000002,0.6714,0.1058,0.023,-0.014,0.004
1670265769.559975,-10.286,-0.291,2.309,0.0198,0.6693,0.10880000000000001,0.019,-0.011,0.002
1670265769.5999749,-10.282,-0.228,2.3890000000000002,0.0193,0.6711,0.1057,0.015,-0.014,-0.012
1670265769.639975,-10.316,-0.198,2.326,0.017,0.6681,0.1087,0.014,-0.007,0.012
1670265769.679975,-10.327,-0.255,2.356,0.019700000000000002,0.6698000000000001,0.1076,0.023,-0.01,0.003
1670265769.719975,-10.272,-0.20400000000000001,2.349,0.017,0.6682,0.1063,0.031,-0.017,-0.004
1670265769.759975,-10.275,-0.258,2.289,0.0171,0.6665,0.1091,0.02,-0.014,0.009000000000000001
1670265769.799974,-10.290000000000001,-0.233,2.356,0.0179,0.6703,0.1062,0.01,-0.013000000000000001,0.003
1670265769.839974,-10.3,-0.187,2.324,0.0162,0.6663,0.1114,0.024,-0.01,0.0
1670265769.879974,-10.348,-0.277,2.327,0.0184,0.6688000000000001,0.1096,0.008,-0.014,-0.005
1670265769.9199739,-10.28,-0.186,2.336,0.019200000000000002,0.67,0.11040000000000001,0.006,-0.019,-0.001
1670265769.959974,-10.292,-0.223,2.368,0.0184,0.6667000000000001,0.10550000000000001,0.01,-0.01,-0.007
1670265769.999974,-10.283,-0.219,2.318,0.0188,0.6664,0.10690000000000001,0.016,-0.015,0.001
1670265770.039974,-10.255,-0.23900000000000002,2.333,0.02,0.671,0.10880000000000001,0.007,-0.013000000000000001,0.003
1670265770.079974,-10.308,-0.2,2.37,0.0184,0.6697000000000001,0.1073,0.018000000000000002,-0.012,0.001
1670265770.119974,-10.283,-0.2,2.378,0.0161,0.6706000000000001,0.10600000000000001,0.025,-0.01,0.003
1670265770.1599739,-10.301,-0.256,2.302,0.0161,0.6646000000000001,0.11560000000000001,0.014,-0.008,-0.001
1670265770.199974,-10.290000000000001,-0.247,2.303,0.019100000000000002,0.6706000000000001,0.10840000000000001,0.002,-0.01,-0.002
1670265770.239974,-10.3,-0.234,2.321,0.020900000000000002,0.6719,0.1085,0.006,-0.008,0.002
1670265770.279974,-10.319,-0.23900000000000002,2.2680000000000002,0.0176,0.6666000000000001,0.1095,0.02,-0.023,-0.004
1670265770.319974,-10.327,-0.23,2.335,0.0161,0.6666000000000001,0.10210000000000001,0.026000000000000002,-0.017,-0.011
1670265770.359974,-10.284,-0.253,2.303,0.018500000000000003,0.6678000000000001,0.1101,0.022,-0.012,-0.002
1670265770.3999739,-10.319,-0.222,2.354,0.0149,0.6682,0.1199,0.011,-0.014,0.003
1670265770.439974,-10.275,-0.213,2.332,0.0184,0.6696000000000001,0.1179,0.024,-0.013000000000000001,-0.001
1670265770.479974,-10.28,-0.256,2.348,0.018000000000000002,0.6681,0.1071,0.025,-0.016,-0.007
1670265770.519974,-10.298,-0.229,2.371,0.0176,0.6694,0.1068,0.01,-0.017,0.002
1670265770.559974,-10.28,-0.246,2.34,0.0184,0.6691,0.108,0.008,-0.006,0.003
1670265770.599974,-10.34,-0.259,2.353,0.0177,0.6689,0.10740000000000001,0.02,-0.016,-0.002
1670265770.6399739,-10.347,-0.18,2.329,0.0184,0.6692,0.1101,0.016,-0.006,0.007
1670265770.679974,-10.256,-0.254,2.297,0.018000000000000002,0.671,0.109,0.025,-0.003,0.0
1670265770.719974,-10.247,-0.221,2.305,0.019100000000000002,0.6724,0.1066,0.016,-0.015,-0.008
1670265770.759974,-10.297,-0.231,2.308,0.0189,0.6675,0.10880000000000001,0.007,-0.017,0.003
1670265770.799974,-10.318,-0.216,2.335,0.0211,0.671,0.10890000000000001,0.022,-0.015,-0.004
1670265770.839973,-10.291,-0.234,2.342,0.0159,0.669,0.10740000000000001,0.025,-0.007,-0.005
1670265770.879973,-10.271,-0.262,2.342,0.0184,0.6693,0.1073,0.016,-0.012,-0.006
1670265770.919973,-10.32,-0.20800000000000002,2.3040000000000003,0.0184,0.6679,0.1095,0.015,-0.015,0.005
1670265770.9599729,-10.332,-0.247,2.351,0.0188,0.6684,0.10740000000000001,0.033,-0.014,-0.002
1670265770.999973,-10.277000000000001,-0.258,2.313,0.016800000000000002,0.6687000000000001,0.10690000000000001,0.022,-0.008,0.002
1670265771.039973,-10.298,-0.231,2.302,0.0193,0.6699,0.1087,0.015,-0.014,0.005
1670265771.079973,-10.338000000000001,-0.195,2.323,0.0162,0.6669,0.1082,0.027,-0.019,-0.003
1670265771.119973,-10.315,-0.229,2.327,0.0176,0.6688000000000001,0.1092,0.026000000000000002,-0.012,0.0
1670265771.159973,-10.278,-0.266,2.299,0.018000000000000002,0.6689,0.1076,0.015,-0.007,-0.001
1670265771.1999729,-10.302,-0.228,2.317,0.017400000000000002,0.6712,0.10700000000000001,0.007,-0.011,-0.002
1670265771.239973,-10.309000000000001,-0.216,2.387,0.0181,0.6673,0.1078,0.014,-0.006,-0.006
1670265771.279973,-10.317,-0.227,2.2920000000000003,0.019200000000000002,0.6706000000000001,0.10830000000000001,0.014,-0.009000000000000001,-0.006
1670265771.319973,-10.295,-0.252,2.308,0.018000000000000002,0.6698000000000001,0.1068,0.015,-0.023,-0.01
1670265771.359973,-10.302,-0.256,2.289,0.017,0.6684,0.108,0.017,-0.016,-0.001
1670265771.399973,-10.295,-0.241,2.289,0.0171,0.6698000000000001,0.1109,0.013000000000000001,-0.018000000000000002,-0.004
1670265771.4399729,-10.329,-0.223,2.326,0.0187,0.6714,0.10640000000000001,0.019,-0.013000000000000001,-0.004
1670265771.479973,-10.286,-0.231,2.324,0.016900000000000002,0.6701,0.1066,0.018000000000000002,-0.011,-0.001
1670265771.519973,-10.317,-0.23,2.327,0.019200000000000002,0.6686000000000001,0.1073,0.029,-0.005,0.0
1670265771.559973,-10.273,-0.248,2.395,0.016900000000000002,0.6699,0.1034,0.018000000000000002,-0.012,-0.004
1670265771.599973,-10.296,-0.243,2.283,0.017,0.6699,0.1081,0.011,-0.008,0.002
1670265771.639973,-10.241,-0.201,2.333,0.0176,0.6706000000000001,0.11130000000000001,0.015,-0.022,0.0
1670265771.679973,-10.287,-0.254,2.299,0.015700000000000002,0.6664,0.1102,0.024,-0.011,0.002
1670265771.719973,-10.344,-0.224,2.341,0.0198,0.6717000000000001,0.1081,0.028,-0.008,0.001
1670265771.759973,-10.279,-0.26,2.2880000000000003,0.016800000000000002,0.67,0.1062,0.015,-0.018000000000000002,-0.009000000000000001
1670265771.799973,-10.298,-0.211,2.273,0.015700000000000002,0.6675,0.10840000000000001,0.01,-0.022,0.0
1670265771.839973,-10.31,-0.2,2.323,0.0189,0.6713,0.1077,0.016,-0.012,-0.003
1670265771.879972,-10.322000000000001,-0.234,2.368,0.0172,0.67,0.108,0.008,-0.009000000000000001,-0.003
1670265771.919972,-10.298,-0.252,2.329,0.0083,0.6691,0.1077,0.005,-0.016,-0.005
1670265771.959972,-10.246,-0.226,2.298,0.0189,0.6715,0.108,0.012,-0.012,0.002
1670265771.9999719,-10.264,-0.246,2.369,0.018600000000000002,0.6723,0.1091,0.025,-0.008,0.001
1670265772.039972,-10.325000000000001,-0.232,2.262,0.016,0.6693,0.10690000000000001,0.026000000000000002,-0.014,-0.005
1670265772.079972,-10.335,-0.217,2.314,0.0159,0.6689,0.10930000000000001,0.021,-0.015,0.0
1670265772.119972,-10.27,-0.26,2.344,0.0171,0.666,0.10600000000000001,0.021,-0.014,0.003
1670265772.159972,-10.308,-0.202,2.326,0.012700000000000001,0.6678000000000001,0.1013,0.03,-0.017,-0.004
1670265772.199972,-10.308,-0.21,2.347,0.014400000000000001,0.6684,0.1298,0.02,-0.011,0.0
1670265772.2399719,-10.302,-0.23800000000000002,2.308,0.0161,0.6717000000000001,0.14450000000000002,0.009000000000000001,-0.015,-0.002
1670265772.279972,-10.314,-0.215,2.35,0.014400000000000001,0.6679,0.11720000000000001,0.004,-0.013000000000000001,-0.003
1670265772.319972,-10.297,-0.218,2.2960000000000003,0.018500000000000003,0.6686000000000001,0.10880000000000001,0.017,-0.019,-0.008
1670265772.359972,-10.28,-0.234,2.386,0.0188,0.6684,0.10840000000000001,0.025,-0.02,-0.01
1670265772.399972,-10.285,-0.231,2.423,0.014,0.6726000000000001,0.1072,0.026000000000000002,-0.024,-0.008
1670265772.439972,-10.287,-0.259,2.363,0.0193,0.671,0.1077,0.016,-0.016,-0.002
1670265772.479972,-10.255,-0.23900000000000002,2.339,0.018600000000000002,0.6693,0.10880000000000001,0.024,-0.013000000000000001,0.0
1670265772.519972,-10.284,-0.226,2.334,0.0183,0.6687000000000001,0.10740000000000001,0.024,-0.006,0.004
1670265772.559972,-10.316,-0.23,2.359,0.017400000000000002,0.6671,0.1061,0.032,-0.007,-0.003
1670265772.599972,-10.304,-0.245,2.303,0.0199,0.671,0.10840000000000001,0.018000000000000002,-0.017,-0.006
1670265772.639972,-10.301,-0.258,2.341,0.0176,0.6696000000000001,0.10830000000000001,0.014,-0.015,-0.001
1670265772.679972,-10.293000000000001,-0.223,2.327,0.0181,0.6672,0.1077,0.016,-0.011,-0.007
1670265772.719972,-10.313,-0.193,2.366,0.019700000000000002,0.6664,0.1085,0.014,-0.003,0.005
1670265772.759972,-10.326,-0.249,2.363,0.0196,0.6698000000000001,0.10890000000000001,0.021,-0.008,0.003
1670265772.799972,-10.264,-0.213,2.309,0.0165,0.6711,0.1077,0.028,-0.016,-0.009000000000000001
1670265772.839972,-10.284,-0.257,2.3000000000000003,0.0158,0.6709,0.1082,0.021,-0.021,-0.007
1670265772.879972,-10.28,-0.214,2.368,0.0146,0.6693,0.1096,0.011,-0.017,0.004
1670265772.919971,-10.331,-0.211,2.357,0.0154,0.667,0.10650000000000001,0.019,-0.008,-0.013000000000000001
1670265772.959971,-10.387,-0.332,2.311,0.0182,0.6685,0.1091,0.008,-0.008,-0.012
1670265772.999971,-10.328,-0.22,2.2920000000000003,0.0159,0.6682,0.10990000000000001,0.004,-0.009000000000000001,0.001
1670265773.0399709,-10.316,-0.24,2.345,0.0152,0.6708000000000001,0.108,0.006,-0.004,-0.003
1670265773.079971,-10.324,-0.245,2.289,0.018000000000000002,0.6709,0.1067,0.012,-0.007,0.003
1670265773.119971,-10.265,-0.247,2.309,0.0176,0.6683,0.10590000000000001,0.015,-0.01,0.007
1670265773.159971,-10.301,-0.20400000000000001,2.312,0.018000000000000002,0.6714,0.10840000000000001,0.022,-0.011,0.005
1670265773.199971,-10.292,-0.199,2.368,0.018500000000000003,0.6679,0.10550000000000001,0.036000000000000004,-0.007,0.0
1670265773.239971,-10.286,-0.261,2.293,0.0173,0.67,0.10650000000000001,0.019,-0.013000000000000001,-0.005
1670265773.279971,-10.279,-0.253,2.291,0.0173,0.6722,0.1072,0.004,-0.012,0.002
1670265773.319971,-10.283,-0.223,2.2720000000000002,0.0172,0.6689,0.1078,0.002,-0.011,0.0
1670265773.359971,-10.31,-0.24,2.2960000000000003,0.0155,0.6725,0.10890000000000001,0.006,-0.021,-0.007
1670265773.399971,-10.322000000000001,-0.232,2.293,0.0179,0.6689,0.10650000000000001,0.013000000000000001,-0.018000000000000002,-0.008
1670265773.439971,-10.268,-0.253,2.36,0.0142,0.6679,0.11120000000000001,0.013000000000000001,-0.021,-0.007
1670265773.479971,-10.302,-0.252,2.308,0.0184,0.6705,0.1063,0.021,-0.014,0.004
1670265773.519971,-10.299,-0.23500000000000001,2.308,0.0173,0.6703,0.10890000000000001,0.02,-0.007,0.007
1670265773.559971,-10.305,-0.216,2.311,0.0172,0.6709,0.1058,0.029,-0.011,-0.001
1670265773.599971,-10.32,-0.214,2.366,0.016800000000000002,0.669,0.1073,0.024,-0.017,-0.001
1670265773.639971,-10.296,-0.301,2.286,0.0171,0.6689,0.1082,0.013000000000000001,-0.009000000000000001,0.001
1670265773.679971,-10.275,-0.249,2.337,0.0073,0.6679,0.11470000000000001,0.012,-0.013000000000000001,0.0
1670265773.719971,-10.341000000000001,-0.177,2.303,0.0165,0.6696000000000001,0.10590000000000001,0.018000000000000002,-0.005,0.007
1670265773.759971,-10.305,-0.254,2.2960000000000003,0.0184,0.67,0.1076,0.021,-0.006,-0.007
1670265773.799971,-10.274000000000001,-0.215,2.308,0.0176,0.6673,0.109,0.024,-0.013000000000000001,-0.002
1670265773.839971,-10.277000000000001,-0.252,2.31,0.016900000000000002,0.67,0.10880000000000001,0.008,-0.011,-0.002
1670265773.879971,-10.314,-0.22,2.293,0.0175,0.6687000000000001,0.1078,0.019,-0.009000000000000001,-0.009000000000000001
1670265773.919971,-10.32,-0.21,2.314,0.010100000000000001,0.6692,0.1085,0.011,-0.021,-0.015
1670265773.95997,-10.342,-0.299,2.365,0.016900000000000002,0.6681,0.10650000000000001,0.003,-0.02,-0.002
1670265773.99997,-10.277000000000001,-0.203,2.332,0.013000000000000001,0.6729,0.11960000000000001,0.018000000000000002,-0.024,-0.005
1670265774.03997,-10.294,-0.263,2.311,0.0148,0.6686000000000001,0.09380000000000001,0.025,-0.008,-0.006
1670265774.07997,-10.290000000000001,-0.254,2.317,0.0149,0.6651,0.10990000000000001,0.016,-0.01,0.003
1670265774.11997,-10.324,-0.19,2.366,0.018000000000000002,0.67,0.13190000000000002,0.015,-0.018000000000000002,0.004
1670265774.15997,-10.284,-0.20800000000000002,2.359,0.0148,0.6723,0.11230000000000001,0.029,-0.008,-0.002
1670265774.19997,-10.299,-0.258,2.36,0.0165,0.6715,0.10790000000000001,0.028,-0.008,0.0
1670265774.23997,-10.292,-0.229,2.286,0.018000000000000002,0.6689,0.1051,0.01,-0.011,0.0
1670265774.27997,-10.316,-0.232,2.2960000000000003,0.0179,0.6698000000000001,0.1092,0.011,-0.011,-0.006
1670265774.31997,-10.286,-0.229,2.325,0.016800000000000002,0.669,0.1091,0.018000000000000002,-0.015,-0.005
1670265774.35997,-10.32,-0.24,2.308,0.0171,0.6706000000000001,0.10650000000000001,0.015,-0.021,-0.004
1670265774.39997,-10.308,-0.255,2.331,0.0178,0.6697000000000001,0.10940000000000001,0.016,-0.023,-0.005
1670265774.43997,-10.313,-0.26,2.356,0.0189,0.6704,0.11,0.015,-0.021,-0.002
1670265774.47997,-10.308,-0.223,2.373,0.0182,0.6702,0.10980000000000001,0.015,-0.016,0.002
1670265774.51997,-10.288,-0.222,2.326,0.0166,0.6673,0.10980000000000001,0.028,-0.015,-0.006
1670265774.55997,-10.301,-0.242,2.307,0.014400000000000001,0.6699,0.10650000000000001,0.029,-0.013000000000000001,0.0
1670265774.59997,-10.315,-0.246,2.344,0.0159,0.6706000000000001,0.1066,0.01,-0.012,-0.003
1670265774.63997,-10.359,-0.12,2.386,0.0195,0.6683,0.1071,0.05,0.008,0.002
1670265774.67997,-10.316,-0.299,2.226,0.016800000000000002,0.6665,0.1097,0.034,-0.001,0.004
1670265774.71997,-10.237,-0.244,2.302,0.019,0.6685,0.1071,0.014,0.006,0.008
1670265774.75997,-10.36,-0.249,2.359,0.0175,0.6684,0.1081,0.023,-0.006,0.002
1670265774.79997,-10.261000000000001,-0.252,2.336,0.017400000000000002,0.6679,0.1057,0.011,-0.018000000000000002,-0.015
1670265774.83997,-10.275,-0.26,2.255,0.0177,0.6703,0.1062,-0.007,-0.028,0.0
1670265774.87997,-10.283,-0.184,2.361,0.017400000000000002,0.6675,0.1091,-0.005,-0.022,-0.01
1670265774.91997,-10.351,-0.21,2.317,0.0154,0.6697000000000001,0.10700000000000001,0.023,-0.015,-0.013000000000000001
1670265774.95997,-10.259,-0.28300000000000003,2.35,0.018000000000000002,0.6693,0.1087,0.01,-0.021,-0.014
1670265774.999969,-10.246,-0.211,2.3850000000000002,0.016800000000000002,0.6697000000000001,0.10740000000000001,0.009000000000000001,-0.026000000000000002,0.002
1670265775.039969,-10.319,-0.26,2.347,0.016300000000000002,0.6698000000000001,0.1044,0.018000000000000002,-0.013000000000000001,-0.004
1670265775.079969,-10.304,-0.26,2.317,0.0181,0.6709,0.1085,0.025,-0.003,-0.006
1670265775.119969,-10.305,-0.265,2.311,0.0193,0.6706000000000001,0.10930000000000001,0.016,-0.01,0.007
1670265775.159969,-10.252,-0.216,2.348,0.0177,0.6671,0.1068,0.015,-0.013000000000000001,0.0
1670265775.199969,-10.321,-0.20400000000000001,2.33,0.0159,0.6703,0.10990000000000001,0.029,-0.011,-0.004
1670265775.239969,-10.335,-0.265,2.263,0.0155,0.6687000000000001,0.10690000000000001,0.021,-0.011,-0.006
1670265775.279969,-10.302,-0.245,2.25,0.0159,0.6689,0.1063,0.007,-0.011,0.002
1670265775.319969,-10.292,-0.232,2.277,0.019,0.6699,0.10940000000000001,0.01,-0.01,-0.002
1670265775.359969,-10.286,-0.224,2.357,0.0177,0.6679,0.1072,0.015,-0.012,-0.006
1670265775.399969,-10.333,-0.245,2.263,0.0177,0.6682,0.1071,0.018000000000000002,-0.021,-0.007
1670265775.439969,-10.287,-0.256,2.343,0.0187,0.6698000000000001,0.1076,0.019,-0.022,-0.005
1670265775.479969,-10.34,-0.23700000000000002,2.322,0.0172,0.6682,0.10930000000000001,0.018000000000000002,-0.018000000000000002,-0.001
1670265775.519969,-10.301,-0.242,2.365,0.0166,0.6713,0.109,0.014,-0.017,0.0
1670265775.559969,-10.327,-0.231,2.353,0.0175,0.6713,0.1077,0.018000000000000002,-0.009000000000000001,-0.001
1670265775.599969,-10.317,-0.23900000000000002,2.2960000000000003,0.015700000000000002,0.6702,0.1081,0.026000000000000002,-0.003,0.0
1670265775.639969,-10.287,-0.23900000000000002,2.343,0.017400000000000002,0.6681,0.10300000000000001,0.016,-0.011,0.0
1670265775.679969,-10.307,-0.241,2.335,0.011000000000000001,0.6651,0.11760000000000001,0.016,-0.015,-0.001
1670265775.719969,-10.324,-0.23,2.278,0.0167,0.6685,0.1096,0.021,-0.015,0.001
1670265775.759969,-10.271,-0.20800000000000002,2.311,0.019200000000000002,0.6715,0.10590000000000001,0.025,-0.018000000000000002,-0.008
1670265775.799969,-10.314,-0.23500000000000001,2.322,0.0201,0.6701,0.10880000000000001,0.03,-0.01,0.002
1670265775.839969,-10.351,-0.254,2.2960000000000003,0.016300000000000002,0.6682,0.10790000000000001,0.026000000000000002,-0.002,0.001
1670265775.879969,-10.27,-0.25,2.335,0.0146,0.6689,0.1087,0.023,-0.016,-0.003
1670265775.9199688,-10.298,-0.221,2.308,0.0082,0.666,0.1063,0.02,-0.022,-0.001
1670265775.959969,-10.355,-0.24,2.351,0.0158,0.669,0.09820000000000001,0.025,-0.013000000000000001,-0.008
1670265775.999969,-10.263,-0.276,2.344,0.0166,0.6684,0.0989,0.024,-0.014,-0.008
1670265776.039968,-10.232000000000001,-0.176,2.388,0.0166,0.6684,0.1051,0.004,-0.014,-0.006
1670265776.079968,-10.311,-0.225,2.308,0.019100000000000002,0.6697000000000001,0.1082,0.025,-0.014,0.005
1670265776.119968,-10.293000000000001,-0.253,2.281,0.0154,0.6715,0.10830000000000001,0.042,-0.002,-0.018000000000000002
1670265776.159968,-10.308,-0.275,2.281,0.016800000000000002,0.6712,0.1095,0.022,-0.005,-0.004
1670265776.199968,-10.307,-0.20400000000000001,2.32,0.0159,0.6662,0.11030000000000001,0.011,-0.014,0.002
1670265776.239968,-10.273,-0.203,2.33,0.0166,0.6689,0.10700000000000001,0.038,-0.021,-0.009000000000000001
1670265776.279968,-10.295,-0.271,2.357,0.0199,0.6703,0.10790000000000001,0.029,-0.016,-0.008
1670265776.319968,-10.275,-0.271,2.2680000000000002,0.0177,0.6672,0.1071,0.008,-0.015,-0.005
1670265776.359968,-10.306000000000001,-0.231,2.266,0.0172,0.67,0.1071,0.01,-0.015,-0.002
1670265776.399968,-10.271,-0.263,2.353,0.0179,0.6696000000000001,0.1071,0.012,-0.011,-0.005
1670265776.439968,-10.316,-0.253,2.357,0.016800000000000002,0.6696000000000001,0.1077,0.014,-0.019,-0.008
1670265776.479968,-10.307,-0.253,2.336,0.0155,0.6686000000000001,0.10650000000000001,0.02,-0.021,-0.014
1670265776.519968,-10.264,-0.264,2.326,0.015700000000000002,0.6685,0.1053,0.02,-0.024,-0.01
1670265776.559968,-10.289,-0.27,2.35,0.016900000000000002,0.6707000000000001,0.10790000000000001,0.018000000000000002,-0.022,-0.007
1670265776.599968,-10.283,-0.249,2.348,0.013000000000000001,0.6688000000000001,0.10640000000000001,0.015,-0.014,-0.001
1670265776.639968,-10.290000000000001,-0.229,2.359,0.018500000000000003,0.6689,0.1071,0.027,-0.011,-0.005
1670265776.679968,-10.322000000000001,-0.251,2.336,0.017400000000000002,0.6707000000000001,0.1085,0.02,-0.013000000000000001,-0.002
1670265776.719968,-10.335,-0.294,2.305,0.012100000000000001,0.6697000000000001,0.10640000000000001,0.011,-0.006,0.0
1670265776.759968,-10.284,-0.232,2.33,0.0188,0.6695,0.1073,0.011,-0.009000000000000001,-0.007
1670265776.799968,-10.295,-0.186,2.372,0.0184,0.6695,0.1101,0.001,-0.006,0.009000000000000001
1670265776.839968,-10.284,-0.271,2.319,0.016,0.6698000000000001,0.1075,0.018000000000000002,-0.013000000000000001,-0.004
1670265776.879968,-10.308,-0.215,2.317,0.0158,0.6723,0.10990000000000001,0.026000000000000002,-0.007,-0.007
1670265776.919968,-10.282,-0.274,2.283,0.016900000000000002,0.6689,0.1067,0.007,-0.009000000000000001,0.0
1670265776.9599679,-10.28,-0.254,2.309,0.0193,0.6693,0.1062,0.004,-0.012,0.0
1670265776.999968,-10.325000000000001,-0.211,2.333,0.016300000000000002,0.6707000000000001,0.10650000000000001,0.016,-0.015,-0.012
1670265777.039968,-10.368,-0.318,2.363,0.016,0.667,0.1073,0.014,-0.011,-0.007
1670265777.079967,-10.299,-0.251,2.365,0.016900000000000002,0.6704,0.1086,0.015,-0.023,-0.001
1670265777.119967,-10.299,-0.278,2.345,0.017,0.6693,0.1102,0.016,-0.004,-0.003
1670265777.159967,-10.289,-0.228,2.351,0.0167,0.6698000000000001,0.1041,0.024,-0.004,0.001
1670265777.199967,-10.273,-0.25,2.321,0.0176,0.6701,0.10830000000000001,0.017,-0.011,0.006
1670265777.239967,-10.294,-0.20800000000000002,2.369,0.015700000000000002,0.6695,0.10930000000000001,0.021,-0.004,0.0
1670265777.279967,-10.316,-0.243,2.253,0.016300000000000002,0.6693,0.109,0.025,-0.007,0.006
1670265777.319967,-10.31,-0.254,2.307,0.017,0.6725,0.10880000000000001,0.015,-0.012,-0.001
1670265777.359967,-10.283,-0.257,2.282,0.0182,0.67,0.1058,-0.001,-0.013000000000000001,-0.002
1670265777.399967,-10.307,-0.259,2.309,0.0165,0.6729,0.1048,0.003,-0.015,0.002
1670265777.439967,-10.322000000000001,-0.24,2.262,0.0045000000000000005,0.6673,0.1077,0.011,-0.019,-0.008
1670265777.479967,-10.293000000000001,-0.234,2.336,0.0166,0.6712,0.109,-0.001,-0.011,0.0
1670265777.519967,-10.258000000000001,-0.316,2.32,0.014400000000000001,0.671,0.10700000000000001,0.005,-0.015,-0.011
1670265777.559967,-10.324,-0.27,2.3810000000000002,0.0183,0.6712,0.1092,-0.003,0.0,0.005
1670265777.599967,-10.337,-0.262,2.333,0.018500000000000003,0.6725,0.1082,-0.004,0.006,0.003
1670265777.639967,-10.239,-0.14400000000000002,2.362,0.0181,0.6701,0.1052,0.058,-0.043000000000000003,-0.01
1670265777.679967,-10.363,-0.289,2.349,0.012,0.667,0.1206,0.032,-0.015,0.002
1670265777.719967,-10.28,-0.369,2.307,0.0154,0.6711,0.0844,0.007,-0.011,0.01
1670265777.7599669,-10.283,-0.17500000000000002,2.371,0.0148,0.6685,0.1257,0.023,-0.002,0.004
1670265777.799967,-10.326,-0.267,2.29,0.0184,0.669,0.0845,0.033,0.0,0.001
1670265777.839967,-10.282,-0.23500000000000001,2.2800000000000002,0.016,0.6692,0.0994,0.013000000000000001,-0.012,-0.009000000000000001
1670265777.879967,-10.265,-0.23800000000000002,2.324,0.0182,0.6689,0.10930000000000001,0.01,-0.013000000000000001,0.0
1670265777.919967,-10.331,-0.20600000000000002,2.356,0.0188,0.6697000000000001,0.1091,0.019,-0.014,-0.004
1670265777.959967,-10.302,-0.231,2.323,0.0122,0.6678000000000001,0.11230000000000001,0.006,-0.008,-0.005
1670265777.9999669,-10.384,-0.314,2.326,0.0171,0.6701,0.1068,0.013000000000000001,-0.016,-0.012
1670265778.039967,-10.284,-0.198,2.345,0.016900000000000002,0.6686000000000001,0.1053,0.004,-0.022,0.001
1670265778.079967,-10.338000000000001,-0.268,2.286,0.0155,0.6676000000000001,0.10690000000000001,0.017,-0.013000000000000001,-0.007
1670265778.119967,-10.274000000000001,-0.277,2.315,0.0213,0.67,0.10790000000000001,0.019,-0.004,-0.001
1670265778.159967,-10.298,-0.28,2.347,0.0146,0.671,0.1062,0.015,-0.012,0.002
1670265778.199966,-10.298,-0.23700000000000002,2.396,0.016,0.6694,0.1075,0.023,-0.016,-0.002
1670265778.239966,-10.326,-0.20800000000000002,2.309,0.019700000000000002,0.6686000000000001,0.10790000000000001,0.041,-0.008,-0.008
1670265778.279966,-10.278,-0.296,2.348,0.016300000000000002,0.6717000000000001,0.1082,0.03,-0.009000000000000001,-0.007
1670265778.319966,-10.313,-0.271,2.2880000000000003,0.017,0.6699,0.10690000000000001,0.014,-0.005,0.004
1670265778.359966,-10.299,-0.221,2.289,0.019200000000000002,0.6697000000000001,0.1076,0.018000000000000002,-0.004,0.003
1670265778.399966,-10.268,-0.265,2.293,0.015300000000000001,0.6704,0.1052,0.025,-0.006,-0.004
1670265778.439966,-10.355,-0.267,2.265,0.018000000000000002,0.6687000000000001,0.1073,0.025,-0.012,0.003
1670265778.479966,-10.306000000000001,-0.213,2.303,0.0161,0.6685,0.11030000000000001,0.017,-0.014,-0.006
1670265778.519966,-10.319,-0.247,2.354,0.0145,0.6687000000000001,0.1058,0.018000000000000002,-0.016,-0.008
1670265778.5599658,-10.353,-0.234,2.266,0.0184,0.6687000000000001,0.10740000000000001,0.014,-0.018000000000000002,-0.006
1670265778.599966,-10.287,-0.263,2.302,0.020200000000000003,0.6715,0.1062,0.011,-0.017,-0.002
1670265778.639966,-10.289,-0.223,2.318,0.0179,0.6707000000000001,0.10740000000000001,0.013000000000000001,-0.014,-0.002
1670265778.679966,-10.294,-0.257,2.321,0.0175,0.6707000000000001,0.1056,0.009000000000000001,-0.018000000000000002,0.001
1670265778.719966,-10.314,-0.244,2.335,0.0155,0.6699,0.10640000000000001,0.01,-0.016,0.0
1670265778.759966,-10.290000000000001,-0.23800000000000002,2.331,0.016300000000000002,0.6701,0.1051,-0.001,-0.015,0.001
1670265778.7999659,-10.317,-0.272,2.2920000000000003,0.0199,0.6709,0.11080000000000001,0.014,-0.012,-0.002
1670265778.839966,-10.362,-0.23,2.308,0.016300000000000002,0.6672,0.1068,0.026000000000000002,-0.008,0.001
1670265778.879966,-10.271,-0.279,2.348,0.0154,0.6709,0.10700000000000001,0.016,-0.012,-0.007
1670265778.919966,-10.303,-0.246,2.303,0.0176,0.6697000000000001,0.10840000000000001,0.009000000000000001,-0.018000000000000002,0.0
1670265778.959966,-10.305,-0.242,2.263,0.015700000000000002,0.6689,0.1063,0.016,-0.01,0.006
1670265778.999966,-10.328,-0.23,2.327,0.010700000000000001,0.6706000000000001,0.109,0.02,-0.003,-0.003
1670265779.0399659,-10.289,-0.23500000000000001,2.317,0.0184,0.6709,0.1111,0.022,-0.007,-0.001
1670265779.079966,-10.245000000000001,-0.26,2.378,0.0167,0.6697000000000001,0.10690000000000001,0.015,-0.009000000000000001,0.008
1670265779.119966,-10.349,-0.242,2.298,0.017,0.6685,0.1066,0.024,0.0,0.004
1670265779.159966,-10.326,-0.263,2.285,0.0193,0.6714,0.1076,0.022,-0.001,-0.002
1670265779.199966,-10.291,-0.26,2.324,0.0135,0.6707000000000001,0.11560000000000001,0.018000000000000002,-0.006,0.01
1670265779.239965,-10.304,-0.241,2.333,0.016300000000000002,0.6689,0.1109,0.027,-0.023,-0.001
1670265779.279965,-10.31,-0.214,2.242,0.0187,0.6691,0.10890000000000001,0.035,-0.012,-0.004
1670265779.319965,-10.304,-0.249,2.2720000000000002,0.0148,0.6671,0.10400000000000001,0.023,-0.007,0.0
1670265779.3599648,-10.277000000000001,-0.277,2.2920000000000003,0.0183,0.6712,0.1087,0.013000000000000001,-0.009000000000000001,-0.003
1670265779.399965,-10.334,-0.254,2.298,0.0175,0.6698000000000001,0.1081,0.004,-0.015,-0.006
1670265779.439965,-10.326,-0.25,2.286,0.0035,0.6665,0.10550000000000001,0.012,-0.013000000000000001,-0.007
1670265779.479965,-10.271,-0.265,2.334,0.0179,0.6711,0.1092,0.014,-0.024,-0.009000000000000001
1670265779.519965,-10.322000000000001,-0.241,2.281,0.016800000000000002,0.6701,0.11130000000000001,0.018000000000000002,-0.018000000000000002,-0.002
1670265779.559965,-10.3,-0.263,2.297,0.0152,0.67,0.10880000000000001,0.021,-0.019,-0.001
1670265779.5999649,-10.332,-0.256,2.2720000000000002,0.0151,0.6698000000000001,0.1363,0.021,-0.011,0.0
1670265779.639965,-10.302,-0.219,2.312,0.0178,0.668,0.1019,0.019,-0.013000000000000001,-0.002
1670265779.679965,-10.294,-0.269,2.2560000000000002,0.015600000000000001,0.6693,0.1333,0.03,-0.011,0.001
1670265779.719965,-10.279,-0.23800000000000002,2.262,0.0079,0.6682,0.0999,0.016,-0.017,-0.005
1670265779.759965,-10.283,-0.257,2.244,0.0183,0.669,0.10830000000000001,0.013000000000000001,-0.017,-0.001
1670265779.799965,-10.317,-0.26,2.327,0.0201,0.6698000000000001,0.10640000000000001,0.022,-0.009000000000000001,-0.004
1670265779.8399649,-10.313,-0.168,2.36,0.015700000000000002,0.6685,0.1073,0.014,-0.005,0.004
1670265779.879965,-10.257,-0.257,2.287,0.0114,0.6704,0.1095,0.022,-0.003,0.001
1670265779.919965,-10.298,-0.221,2.286,0.0182,0.6707000000000001,0.10740000000000001,0.017,-0.013000000000000001,-0.005
1670265779.959965,-10.31,-0.241,2.29,0.016900000000000002,0.6713,0.1052,0.015,-0.023,-0.004
1670265779.999965,-10.331,-0.254,2.325,0.0176,0.6693,0.1087,0.017,-0.024,-0.006
1670265780.039965,-10.27,-0.22,2.336,0.0187,0.6707000000000001,0.1052,0.014,-0.01,-0.005
1670265780.0799649,-10.258000000000001,-0.259,2.321,0.014100000000000001,0.6694,0.10550000000000001,0.01,-0.011,-0.001
1670265780.119965,-10.352,-0.26,2.2520000000000002,0.016800000000000002,0.6717000000000001,0.1037,0.012,-0.023,0.005
1670265780.159965,-10.298,-0.267,2.299,0.0188,0.6693,0.1062,0.022,-0.009000000000000001,-0.006
1670265780.199965,-10.279,-0.266,2.332,0.0159,0.6682,0.1044,0.019,-0.012,0.005
1670265780.239965,-10.282,-0.229,2.32,0.015600000000000001,0.6667000000000001,0.1057,0.024,-0.016,0.007
1670265780.279964,-10.345,-0.20600000000000002,2.281,0.0159,0.6717000000000001,0.10980000000000001,0.03,-0.011,-0.004
1670265780.319964,-10.319,-0.246,2.29,0.0171,0.6701,0.1068,0.029,-0.008,0.002
1670265780.359964,-10.305,-0.248,2.283,0.0187,0.6692,0.1066,0.013000000000000001,-0.013000000000000001,-0.004
1670265780.3999639,-10.285,-0.23700000000000002,2.301,0.0171,0.6689,0.10790000000000001,0.005,-0.007,0.0
1670265780.439964,-10.327,-0.227,2.273,0.0175,0.6669,0.10400000000000001,0.012,-0.018000000000000002,-0.003
1670265780.479964,-10.299,-0.232,2.2920000000000003,0.015700000000000002,0.6692,0.1096,0.01,-0.014,-0.005
1670265780.519964,-10.287,-0.184,2.309,0.0184,0.6707000000000001,0.1058,0.037,-0.013000000000000001,-0.004
1670265780.559964,-10.371,-0.268,2.306,0.0176,0.6712,0.1043,0.038,-0.008,-0.003
1670265780.599964,-10.288,-0.274,2.353,0.0188,0.6672,0.1076,0.01,-0.022,0.0
1670265780.6399639,-10.272,-0.247,2.265,0.0158,0.6713,0.10550000000000001,-0.003,-0.024,-0.002
1670265780.679964,-10.315,-0.224,2.307,0.017400000000000002,0.6687000000000001,0.1063,0.007,-0.014,0.0
1670265780.719964,-10.285,-0.20500000000000002,2.323,0.018500000000000003,0.6676000000000001,0.1081,0.019,-0.021,-0.005
1670265780.759964,-10.309000000000001,-0.256,2.326,0.0146,0.6696000000000001,0.1087,0.012,-0.011,-0.003
1670265780.799964,-10.264,-0.249,2.249,0.0184,0.6672,0.1051,0.003,-0.021,-0.004
1670265780.839964,-10.362,-0.251,2.278,0.0188,0.6683,0.1095,0.008,-0.01,0.009000000000000001
1670265780.8799639,-10.352,-0.225,2.29,0.0196,0.6685,0.1048,0.021,-0.008,0.005
1670265780.919964,-10.3,-0.226,2.306,0.019,0.6685,0.10740000000000001,0.024,-0.015,-0.004
1670265780.959964,-10.271,-0.248,2.291,0.0053,0.6667000000000001,0.1168,0.021,-0.014,0.0
1670265780.999964,-10.303,-0.257,2.248,0.0152,0.6705,0.1043,0.014,-0.013000000000000001,0.0
1670265781.039964,-10.325000000000001,-0.231,2.251,0.0166,0.6689,0.1077,0.02,-0.013000000000000001,-0.003
1670265781.079964,-10.321,-0.296,2.329,0.0178,0.6706000000000001,0.1082,0.005,-0.014,-0.007
1670265781.119964,-10.311,-0.196,2.321,0.0177,0.6706000000000001,0.1072,0.017,-0.021,0.0
1670265781.159964,-10.331,-0.252,2.287,0.0181,0.6704,0.10650000000000001,0.018000000000000002,-0.013000000000000001,-0.006
1670265781.199964,-10.331,-0.246,2.302,0.016300000000000002,0.6685,0.11230000000000001,0.015,-0.008,0.0
1670265781.239964,-10.265,-0.261,2.364,0.016300000000000002,0.668,0.1058,0.006,-0.012,0.005
1670265781.279964,-10.321,-0.223,2.299,0.0099,0.668,0.1085,0.016,-0.013000000000000001,-0.002
1670265781.319963,-10.319,-0.226,2.319,0.0199,0.6697000000000001,0.10880000000000001,0.026000000000000002,-0.01,-0.001
1670265781.359963,-10.295,-0.251,2.2840000000000003,0.0165,0.6684,0.10540000000000001,0.018000000000000002,-0.015,-0.004
1670265781.399963,-10.299,-0.265,2.294,0.0176,0.6696000000000001,0.1085,0.003,-0.008,-0.002
1670265781.4399629,-10.306000000000001,-0.232,2.266,0.0146,0.6706000000000001,0.0829,0.009000000000000001,-0.012,0.0
1670265781.479963,-10.32,-0.233,2.248,0.015000000000000001,0.6692,0.1063,0.018000000000000002,-0.015,-0.009000000000000001
1670265781.519963,-10.267,-0.263,2.329,0.0149,0.669,0.0892,0.014,-0.015,-0.003
1670265781.559963,-10.301,-0.263,2.2560000000000002,0.0151,0.6686000000000001,0.0975,0.018000000000000002,-0.015,-0.008
1670265781.599963,-10.312,-0.25,2.299,0.017,0.6704,0.1086,0.01,-0.015,0.0
1670265781.639963,-10.333,-0.212,2.309,0.0148,0.6693,0.1038,0.024,-0.014,-0.003
1670265781.6799629,-10.299,-0.252,2.2520000000000002,0.0166,0.6689,0.1068,0.02,-0.005,0.0
1670265781.719963,-10.311,-0.253,2.234,0.0154,0.6704,0.109,0.016,-0.008,-0.009000000000000001
1670265781.759963,-10.326,-0.263,2.251,0.0085,0.669,0.1102,0.007,-0.013000000000000001,0.0
1670265781.799963,-10.283,-0.20500000000000002,2.2640000000000002,0.0164,0.6703,0.10450000000000001,0.004,-0.009000000000000001,0.004
1670265781.839963,-10.302,-0.234,2.308,0.018500000000000003,0.6684,0.109,0.017,-0.009000000000000001,-0.001
1670265781.879963,-10.331,-0.25,2.279,0.016800000000000002,0.669,0.1071,0.025,-0.009000000000000001,0.0
1670265781.919963,-10.262,-0.272,2.299,0.016900000000000002,0.6696000000000001,0.1068,0.019,-0.011,-0.009000000000000001
1670265781.959963,-10.273,-0.247,2.266,0.0194,0.6705,0.10640000000000001,0.009000000000000001,-0.017,0.003
1670265781.999963,-10.314,-0.211,2.33,0.0167,0.6681,0.1063,0.01,-0.01,0.0
1670265782.039963,-10.328,-0.23800000000000002,2.2920000000000003,0.0155,0.6695,0.1082,0.019,-0.005,-0.003
1670265782.079963,-10.271,-0.325,2.298,0.0176,0.6714,0.1068,0.022,-0.018000000000000002,-0.018000000000000002
1670265782.119963,-10.276,-0.211,2.277,0.0178,0.6708000000000001,0.1028,0.009000000000000001,-0.021,-0.003
1670265782.159963,-10.352,-0.257,2.247,0.0173,0.6713,0.1073,0.017,-0.01,-0.001
1670265782.199963,-10.308,-0.259,2.321,0.016,0.6703,0.1096,0.019,-0.011,-0.009000000000000001
1670265782.239963,-10.301,-0.289,2.258,0.016300000000000002,0.6701,0.1053,0.011,-0.012,0.007
1670265782.279963,-10.314,-0.20800000000000002,2.287,0.018000000000000002,0.67,0.11130000000000001,0.014,-0.014,0.002
1670265782.319963,-10.323,-0.219,2.278,0.016900000000000002,0.6734,0.10650000000000001,0.025,-0.013000000000000001,-0.003
1670265782.359962,-10.338000000000001,-0.268,2.242,0.0159,0.6681,0.1057,0.022,-0.014,-0.004
1670265782.399962,-10.302,-0.241,2.3000000000000003,0.0193,0.6693,0.10840000000000001,0.015,-0.012,-0.003
1670265782.439962,-10.273,-0.249,2.2920000000000003,0.016800000000000002,0.6708000000000001,0.1063,0.013000000000000001,-0.01,-0.008
1670265782.4799619,-10.309000000000001,-0.23700000000000002,2.297,0.0171,0.671,0.10600000000000001,0.011,-0.015,-0.009000000000000001
1670265782.519962,-10.334,-0.241,2.2640000000000002,0.0159,0.6684,0.111,0.021,-0.019,-0.004
1670265782.559962,-10.297,-0.269,2.335,0.0159,0.6687000000000001,0.1071,0.025,-0.019,-0.005
1670265782.599962,-10.292,-0.268,2.278,0.019200000000000002,0.6714,0.1038,0.016,-0.021,0.0
1670265782.639962,-10.31,-0.263,2.3000000000000003,0.017400000000000002,0.6689,0.1124,0.013000000000000001,-0.014,0.005
1670265782.679962,-10.339,-0.223,2.269,0.016900000000000002,0.6682,0.1058,0.032,-0.011,0.007
1670265782.719962,-10.334,-0.20800000000000002,2.302,0.0154,0.6695,0.1051,0.039,-0.012,0.007
1670265782.759962,-10.289,-0.246,2.332,0.0188,0.6668000000000001,0.10790000000000001,0.035,-0.014,0.0
1670265782.799962,-10.316,-0.262,2.29,0.0162,0.6653,0.10640000000000001,0.024,-0.006,0.001
1670265782.839962,-10.328,-0.261,2.259,0.0183,0.6693,0.1057,0.018000000000000002,-0.014,0.005
1670265782.879962,-10.304,-0.217,2.262,0.0195,0.6687000000000001,0.1073,0.014,-0.003,-0.007
1670265782.919962,-10.359,-0.154,2.29,0.016800000000000002,0.6688000000000001,0.1062,0.023,-0.003,0.003
1670265782.959962,-10.323,-0.254,2.263,0.0196,0.6682,0.10650000000000001,0.011,-0.011,-0.007
1670265782.999962,-10.304,-0.222,2.271,0.0183,0.6735,0.1068,0.018000000000000002,-0.024,-0.005
1670265783.039962,-10.309000000000001,-0.227,2.289,0.0083,0.6649,0.1158,0.015,-0.015,-0.008
1670265783.079962,-10.314,-0.217,2.34,0.0182,0.6696000000000001,0.1063,0.014,-0.005,-0.005
1670265783.119962,-10.316,-0.226,2.329,0.0177,0.671,0.10890000000000001,0.013000000000000001,-0.013000000000000001,-0.01
1670265783.159962,-10.372,-0.305,2.235,0.0151,0.6698000000000001,0.1041,0.007,-0.027,-0.007
1670265783.199962,-10.323,-0.193,2.319,0.016900000000000002,0.6692,0.1091,0.02,-0.013000000000000001,-0.001
1670265783.239962,-10.299,-0.255,2.326,0.013000000000000001,0.6678000000000001,0.1047,0.017,-0.007,-0.006
1670265783.279962,-10.337,-0.254,2.275,0.0088,0.6678000000000001,0.11330000000000001,0.015,-0.017,0.009000000000000001
1670265783.319962,-10.329,-0.263,2.357,0.0154,0.6661,0.12860000000000002,0.01,-0.008,-0.001
1670265783.359962,-10.271,-0.25,2.265,0.0151,0.6693,0.11810000000000001,0.026000000000000002,-0.01,0.0
1670265783.399961,-10.267,-0.243,2.262,0.019100000000000002,0.6704,0.096,0.011,-0.003,0.001
1670265783.439961,-10.315,-0.222,2.263,0.0178,0.67,0.10650000000000001,0.014,-0.023,-0.007
1670265783.479961,-10.325000000000001,-0.229,2.2920000000000003,0.0173,0.6697000000000001,0.10550000000000001,0.021,-0.021,-0.019
1670265783.5199609,-10.323,-0.279,2.305,0.0162,0.6697000000000001,0.1109,0.016,-0.022,-0.011
1670265783.559961,-10.31,-0.249,2.2800000000000002,0.014,0.6696000000000001,0.1073,0.018000000000000002,-0.025,-0.005
1670265783.599961,-10.315,-0.241,2.27,0.0154,0.6692,0.1061,0.023,-0.021,-0.007
1670265783.639961,-10.27,-0.273,2.339,0.0166,0.6696000000000001,0.1063,0.025,-0.019,-0.004
1670265783.679961,-10.302,-0.253,2.328,0.0194,0.6687000000000001,0.1046,0.019,-0.019,0.0
1670265783.719961,-10.302,-0.245,2.2960000000000003,0.0177,0.6717000000000001,0.1052,0.017,-0.016,-0.002
1670265783.759961,-10.303,-0.24,2.314,0.0216,0.6701,0.1077,0.008,-0.01,-0.001
1670265783.799961,-10.312,-0.303,2.271,0.014100000000000001,0.6679,0.1066,0.022,-0.008,0.0
1670265783.839961,-10.26,-0.262,2.287,0.0196,0.6693,0.10550000000000001,0.011,-0.01,-0.003
1670265783.799961,-10.313,-0.214,2.293,0.018500000000000003,0.6698000000000001,0.1082,0.005,-0.004,0.009000000000000001
1670265783.839961,-10.314,-0.249,2.299,0.018500000000000003,0.6711,0.10450000000000001,0.023,-0.01,0.006
1670265783.879961,-10.262,-0.248,2.257,0.018000000000000002,0.6703,0.1077,0.033,-0.016,-0.007
1670265783.919961,-10.286,-0.28300000000000003,2.286,0.0177,0.67,0.10690000000000001,0.023,-0.015,0.002
1670265783.959961,-10.314,-0.234,2.32,0.0148,0.6681,0.1073,0.01,-0.011,0.003
1670265783.999961,-10.334,-0.223,2.278,0.0183,0.6704,0.1076,0.014,-0.017,-0.001
1670265784.039961,-10.326,-0.295,2.313,0.0165,0.67,0.1071,0.011,-0.014,-0.008
1670265784.079961,-10.337,-0.217,2.315,0.0146,0.6692,0.1062,0.017,-0.019,-0.002
1670265784.119961,-10.309000000000001,-0.271,2.2960000000000003,0.018500000000000003,0.6712,0.10740000000000001,0.021,-0.02,-0.006
1670265784.159961,-10.290000000000001,-0.231,2.353,0.014400000000000001,0.6727000000000001,0.1068,0.02,-0.007,0.001
1670265784.199961,-10.273,-0.254,2.274,0.0167,0.6709,0.10650000000000001,0.007,-0.016,0.0
1670265784.239961,-10.331,-0.227,2.229,0.016800000000000002,0.6722,0.1052,0.017,-0.012,0.003
1670265784.279961,-10.31,-0.219,2.274,0.0152,0.6698000000000001,0.10740000000000001,0.022,-0.009000000000000001,-0.002
1670265784.319961,-10.316,-0.25,2.279,0.0148,0.6715,0.1066,0.012,-0.003,-0.003
1670265784.359961,-10.315,-0.269,2.279,0.0177,0.6709,0.1105,0.007,-0.008,-0.003
1670265784.399961,-10.316,-0.248,2.244,0.013800000000000002,0.6692,0.108,0.005,-0.01,-0.002
1670265784.43996,-10.294,-0.217,2.341,0.0164,0.6706000000000001,0.10590000000000001,0.007,-0.006,-0.005
1670265784.47996,-10.316,-0.227,2.328,0.0126,0.67,0.10930000000000001,0.016,-0.012,-0.005
1670265784.51996,-10.337,-0.248,2.281,0.0126,0.669,0.1057,0.013000000000000001,-0.016,0.0
1670265784.55996,-10.329,-0.266,2.253,0.0175,0.6693,0.1071,0.013000000000000001,-0.01,0.0
1670265784.59996,-10.344,-0.223,2.278,0.0164,0.6696000000000001,0.1073,0.017,-0.006,-0.004
1670265784.63996,-10.346,-0.234,2.32,0.0129,0.6676000000000001,0.1058,0.02,-0.005,0.002
1670265784.67996,-10.316,-0.242,2.32,0.0161,0.6714,0.10640000000000001,0.018000000000000002,-0.008,0.001
1670265784.71996,-10.34,-0.299,2.277,0.0171,0.6694,0.1091,0.005,0.0,0.003
1670265784.75996,-10.298,-0.228,2.306,0.0179,0.6684,0.10500000000000001,0.007,-0.002,-0.002
1670265784.79996,-10.317,-0.197,2.235,0.0205,0.6706000000000001,0.10600000000000001,0.016,-0.005,-0.002
1670265784.83996,-10.361,-0.225,2.2680000000000002,0.0182,0.6678000000000001,0.10690000000000001,0.01,-0.01,-0.004
1670265784.87996,-10.294,-0.244,2.232,0.015700000000000002,0.6675,0.1068,0.015,-0.018000000000000002,-0.003
1670265784.91996,-10.278,-0.253,2.238,0.0188,0.6685,0.1062,0.013000000000000001,-0.014,-0.001
1670265784.95996,-10.298,-0.23500000000000001,2.283,0.007200000000000001,0.6659,0.1135,0.023,-0.011,-0.007
1670265784.99996,-10.379,-0.229,2.23,0.0137,0.669,0.1058,0.02,-0.009000000000000001,-0.003
1670265785.03996,-10.388,-0.34400000000000003,2.277,0.016900000000000002,0.6703,0.0922,0.011,-0.022,-0.004
1670265785.07996,-10.308,-0.184,2.306,0.0171,0.6704,0.1163,0.025,-0.013000000000000001,-0.002
1670265785.11996,-10.326,-0.249,2.287,0.013800000000000002,0.6707000000000001,0.09670000000000001,0.025,-0.007,-0.009000000000000001
1670265785.15996,-10.317,-0.247,2.274,0.0041,0.6696000000000001,0.1173,0.013000000000000001,-0.015,0.0
1670265785.19996,-10.34,-0.185,2.325,0.015700000000000002,0.6709,0.1041,0.018000000000000002,-0.011,0.008
1670265785.23996,-10.335,-0.249,2.226,0.017,0.6685,0.1062,0.023,-0.002,-0.005
1670265785.27996,-10.271,-0.271,2.25,0.0149,0.6712,0.10590000000000001,0.013000000000000001,-0.006,-0.008
1670265785.31996,-10.314,-0.231,2.2600000000000002,0.013800000000000002,0.6668000000000001,0.10600000000000001,0.009000000000000001,-0.014,-0.005
1670265785.35996,-10.328,-0.253,2.257,0.019,0.6708000000000001,0.1073,0.01,-0.01,-0.003
1670265785.39996,-10.306000000000001,-0.267,2.2600000000000002,0.0171,0.6707000000000001,0.10540000000000001,0.016,-0.012,-0.011
1670265785.43996,-10.316,-0.262,2.267,0.0155,0.672,0.1056,0.016,-0.016,-0.009000000000000001
1670265785.479959,-10.327,-0.254,2.317,0.0189,0.6704,0.1092,0.018000000000000002,-0.02,-0.008
1670265785.519959,-10.326,-0.268,2.239,0.015700000000000002,0.6704,0.10640000000000001,0.032,-0.015,0.005
1670265785.559959,-10.318,-0.265,2.2800000000000002,0.0165,0.6682,0.1076,0.021,-0.018000000000000002,0.0
1670265785.599959,-10.322000000000001,-0.244,2.289,0.019200000000000002,0.6696000000000001,0.10490000000000001,0.018000000000000002,-0.011,-0.001
1670265785.639959,-10.332,-0.23700000000000002,2.289,0.015600000000000001,0.6718000000000001,0.1068,0.028,-0.014,0.001
1670265785.679959,-10.305,-0.256,2.337,0.015600000000000001,0.6685,0.1086,0.017,-0.02,-0.006
1670265785.719959,-10.326,-0.269,2.297,0.0132,0.6714,0.10600000000000001,0.011,-0.018000000000000002,0.0
1670265785.759959,-10.295,-0.20700000000000002,2.247,0.014700000000000001,0.6703,0.1047,0.014,-0.016,0.002
1670265785.799959,-10.312,-0.199,2.249,0.0179,0.6693,0.10350000000000001,0.015,-0.012,0.001
1670265785.839959,-10.36,-0.28400000000000003,2.251,0.0196,0.669,0.1082,0.029,-0.008,-0.004
1670265785.879959,-10.324,-0.252,2.274,0.016800000000000002,0.6701,0.1042,0.018000000000000002,-0.016,-0.007
1670265785.919959,-10.277000000000001,-0.257,2.233,0.0173,0.6701,0.10700000000000001,0.001,-0.019,0.001
1670265785.959959,-10.337,-0.228,2.2920000000000003,0.0166,0.6717000000000001,0.1052,0.017,-0.012,-0.002
1670265785.999959,-10.362,-0.241,2.241,0.014,0.6718000000000001,0.10600000000000001,0.035,0.001,-0.002
1670265786.039959,-10.366,-0.325,2.231,0.019,0.6695,0.10600000000000001,0.035,0.003,-0.002
1670265786.079959,-10.266,-0.259,2.281,0.0181,0.6687000000000001,0.1039,0.014,-0.03,-0.003
1670265786.119959,-10.285,-0.274,2.2640000000000002,0.016,0.6683,0.10600000000000001,0.012,-0.022,-0.01
1670265786.159959,-10.325000000000001,-0.24,2.312,0.0194,0.6688000000000001,0.10690000000000001,0.01,-0.022,-0.011
1670265786.199959,-10.338000000000001,-0.257,2.253,0.016300000000000002,0.6694,0.1052,0.014,-0.018000000000000002,0.001
1670265786.239959,-10.317,-0.198,2.279,0.014400000000000001,0.6702,0.10500000000000001,0.028,-0.014,-0.007
1670265786.279959,-10.323,-0.23800000000000002,2.226,0.0182,0.6715,0.108,0.038,-0.01,-0.009000000000000001
1670265786.319959,-10.283,-0.28800000000000003,2.265,0.0149,0.6712,0.10550000000000001,0.023,-0.016,-0.002
1670265786.359959,-10.307,-0.265,2.269,0.0154,0.6705,0.10740000000000001,0.007,-0.022,-0.002
1670265786.3999588,-10.32,-0.249,2.267,0.020200000000000003,0.672,0.10790000000000001,0.02,-0.019,-0.007
1670265786.439959,-10.312,-0.252,2.315,0.017400000000000002,0.6702,0.10400000000000001,0.02,-0.02,-0.009000000000000001
1670265786.479959,-10.322000000000001,-0.253,2.286,0.0196,0.6706000000000001,0.1067,0.023,-0.02,-0.007
1670265786.519958,-10.302,-0.271,2.259,0.0149,0.6715,0.10650000000000001,0.019,-0.024,-0.006
1670265786.559958,-10.335,-0.273,2.2560000000000002,0.0165,0.6698000000000001,0.10550000000000001,0.02,-0.02,-0.007
1670265786.599958,-10.296,-0.247,2.2880000000000003,0.0193,0.6681,0.1077,0.02,-0.013000000000000001,0.0
1670265786.639958,-10.293000000000001,-0.244,2.291,0.0149,0.6709,0.1067,0.025,-0.016,-0.004
1670265786.679958,-10.331,-0.245,2.314,0.0165,0.6693,0.1063,0.025,-0.01,-0.005
1670265786.719958,-10.293000000000001,-0.265,2.293,0.0171,0.6685,0.10740000000000001,0.018000000000000002,-0.019,-0.008
1670265786.759958,-10.28,-0.219,2.253,0.0165,0.6702,0.108,0.017,-0.01,0.001
1670265786.799958,-10.264,-0.268,2.2640000000000002,0.018500000000000003,0.6687000000000001,0.1056,0.015,-0.007,-0.01
1670265786.839958,-10.358,-0.297,2.259,0.019,0.6728000000000001,0.1066,0.023,-0.001,0.005
1670265786.879958,-10.365,-0.202,2.261,0.0167,0.6688000000000001,0.1062,0.019,-0.003,0.001
1670265786.919958,-10.238,-0.262,2.33,0.013800000000000002,0.6708000000000001,0.07690000000000001,0.014,-0.017,-0.007
1670265786.959958,-10.282,-0.244,2.27,0.005200000000000001,0.6651,0.10590000000000001,0.018000000000000002,-0.014,0.0
1670265786.999958,-10.290000000000001,-0.262,2.301,0.0183,0.6691,0.0998,0.015,-0.012,-0.001
1670265787.039958,-10.252,-0.257,2.289,0.0196,0.6711,0.1178,0.015,-0.012,-0.007
1670265787.079958,-10.231,-0.23800000000000002,2.351,0.0176,0.6692,0.1042,0.013000000000000001,-0.02,-0.012
1670265787.119958,-10.349,-0.277,2.253,0.017400000000000002,0.6695,0.10640000000000001,0.018000000000000002,-0.027,-0.003
1670265787.159958,-10.332,-0.267,2.2960000000000003,0.02,0.6695,0.10790000000000001,0.027,-0.009000000000000001,-0.007
1670265787.1999578,-10.290000000000001,-0.269,2.347,0.0173,0.6701,0.10590000000000001,0.02,-0.012,0.004
1670265787.239958,-10.331,-0.23500000000000001,2.273,0.012400000000000001,0.6702,0.1068,0.016,-0.022,0.003
1670265787.279958,-10.308,-0.20400000000000001,2.314,0.0178,0.6685,0.10350000000000001,0.031,-0.019,-0.002
1670265787.319958,-10.28,-0.271,2.283,0.0171,0.6676000000000001,0.1068,0.025,-0.005,0.003
1670265787.359958,-10.326,-0.254,2.262,0.0166,0.6696000000000001,0.1048,0.013000000000000001,-0.01,0.0
1670265787.399958,-10.298,-0.256,2.257,0.0189,0.6714,0.1062,0.01,-0.006,0.0
1670265787.4399579,-10.34,-0.244,2.244,0.0184,0.6701,0.1051,0.002,-0.009000000000000001,0.001
1670265787.479958,-10.326,-0.228,2.294,0.0181,0.6685,0.1061,0.014,-0.012,-0.003
1670265787.519958,-10.303,-0.249,2.287,0.0193,0.6689,0.1076,0.021,-0.015,-0.002
1670265787.559958,-10.296,-0.28300000000000003,2.2840000000000003,0.0183,0.6695,0.1056,0.027,-0.015,0.002
1670265787.599958,-10.3,-0.246,2.267,0.020200000000000003,0.6681,0.1063,0.021,-0.017,0.0
1670265787.639957,-10.307,-0.252,2.294,0.0178,0.6693,0.1068,0.023,-0.018000000000000002,0.001
1670265787.679957,-10.322000000000001,-0.193,2.299,0.0176,0.67,0.10600000000000001,0.026000000000000002,-0.012,0.004
1670265787.719957,-10.314,-0.274,2.267,0.0198,0.6687000000000001,0.1091,0.021,-0.007,0.005
1670265787.759957,-10.329,-0.277,2.323,0.0176,0.6697000000000001,0.1101,0.017,-0.01,-0.005
1670265787.799957,-10.315,-0.167,2.273,0.0183,0.6688000000000001,0.1072,0.014,-0.004,0.008
1670265787.839957,-10.321,-0.215,2.25,0.0213,0.6684,0.1062,0.023,-0.006,0.001
1670265787.879957,-10.298,-0.196,2.241,0.019200000000000002,0.6686000000000001,0.1063,0.02,-0.017,-0.008
1670265787.919957,-10.323,-0.242,2.259,0.016800000000000002,0.6675,0.10540000000000001,0.01,-0.013000000000000001,0.003
1670265787.959957,-10.336,-0.23,2.303,0.019100000000000002,0.6682,0.10650000000000001,0.016,-0.006,-0.001
1670265787.9999568,-10.315,-0.18,2.3000000000000003,0.0177,0.6675,0.1057,0.019,-0.009000000000000001,-0.006
1670265788.039957,-10.271,-0.241,2.277,0.0166,0.6686000000000001,0.1062,0.005,-0.015,-0.002
1670265788.079957,-10.365,-0.229,2.273,0.020300000000000002,0.6709,0.1106,0.004,-0.014,-0.002
1670265788.119957,-10.328,-0.272,2.243,0.0178,0.6711,0.1057,0.009000000000000001,0.0,-0.006
1670265788.159957,-10.296,-0.26,2.218,0.0173,0.6701,0.1063,0.009000000000000001,-0.006,-0.007
1670265788.199957,-10.332,-0.23800000000000002,2.254,0.0199,0.6718000000000001,0.108,0.013000000000000001,-0.012,-0.001
1670265788.2399569,-10.343,-0.225,2.248,0.019,0.6686000000000001,0.10600000000000001,0.02,-0.009000000000000001,-0.001
1670265788.279957,-10.335,-0.23500000000000001,2.271,0.0193,0.6697000000000001,0.108,0.026000000000000002,-0.017,-0.005
1670265788.319957,-10.305,-0.263,2.23,0.0193,0.6692,0.10740000000000001,0.022,-0.016,-0.003
1670265788.359957,-10.325000000000001,-0.23900000000000002,2.257,0.018500000000000003,0.6712,0.10490000000000001,0.012,-0.011,-0.001
1670265788.399957,-10.298,-0.225,2.321,0.0213,0.6686000000000001,0.1051,0.016,-0.013000000000000001,-0.002
1670265788.439957,-10.325000000000001,-0.219,2.277,0.0189,0.6678000000000001,0.10890000000000001,0.017,-0.015,-0.01
1670265788.4799569,-10.316,-0.222,2.2840000000000003,0.0054,0.6646000000000001,0.1154,0.021,-0.018000000000000002,-0.005
1670265788.519957,-10.322000000000001,-0.246,2.301,0.0114,0.6698000000000001,0.10880000000000001,0.007,-0.018000000000000002,-0.008
1670265788.559957,-10.336,-0.223,2.273,0.0175,0.6696000000000001,0.1063,0.014,-0.016,-0.003
1670265788.599957,-10.315,-0.23700000000000002,2.289,0.0183,0.6696000000000001,0.10550000000000001,0.02,-0.018000000000000002,-0.006
1670265788.639957,-10.326,-0.231,2.279,0.020200000000000003,0.6694,0.11040000000000001,0.017,-0.014,-0.006
1670265788.679956,-10.308,-0.257,2.277,0.0199,0.6693,0.1097,0.01,-0.014,-0.004
1670265788.719956,-10.332,-0.298,2.2640000000000002,0.0142,0.6695,0.1091,0.002,-0.01,0.003
1670265788.759956,-10.283,-0.196,2.294,0.0184,0.6683,0.1101,0.009000000000000001,-0.012,-0.003
1670265788.7999558,-10.357000000000001,-0.19,2.282,0.0165,0.6685,0.1427,0.015,-0.009000000000000001,-0.005
1670265788.839956,-10.35,-0.268,2.254,0.019100000000000002,0.6723,0.0878,0.007,-0.005,-0.007
1670265788.879956,-10.228,-0.21,2.239,0.0146,0.671,0.0941,-0.009000000000000001,-0.009000000000000001,0.004
1670265788.919956,-10.307,-0.232,2.258,0.017400000000000002,0.6695,0.1062,0.006,-0.014,-0.005
1670265788.959956,-10.344,-0.275,2.2920000000000003,0.0196,0.6689,0.1068,0.036000000000000004,-0.016,-0.013000000000000001
1670265788.999956,-10.329,-0.371,2.348,0.015700000000000002,0.6668000000000001,0.1148,0.014,-0.019,-0.006
1670265789.0399559,-10.277000000000001,-0.188,2.313,0.0184,0.6703,0.10740000000000001,0.005,-0.017,0.0
1670265789.079956,-10.312,-0.257,2.336,0.0193,0.6701,0.1047,0.023,-0.009000000000000001,0.0
1670265789.119956,-10.344,-0.249,2.27,0.0159,0.6696000000000001,0.1068,0.025,-0.004,-0.011
1670265789.159956,-10.274000000000001,-0.28800000000000003,2.294,0.0176,0.6708000000000001,0.1047,0.016,-0.009000000000000001,0.001
1670265789.199956,-10.318,-0.211,2.263,0.020900000000000002,0.6693,0.1076,0.016,-0.018000000000000002,0.0
1670265789.239956,-10.326,-0.254,2.232,0.0183,0.6677000000000001,0.1052,0.027,-0.008,-0.004
1670265789.2799559,-10.288,-0.274,2.2680000000000002,0.0155,0.6708000000000001,0.1051,0.016,-0.007,-0.002
1670265789.319956,-10.314,-0.255,2.245,0.0188,0.6706000000000001,0.10930000000000001,0.014,-0.011,0.0
1670265789.359956,-10.331,-0.23600000000000002,2.221,0.0152,0.6715,0.10500000000000001,0.01,-0.011,-0.003
1670265789.399956,-10.299,-0.256,2.251,0.0166,0.6706000000000001,0.10550000000000001,0.014,-0.019,-0.009000000000000001
1670265789.439956,-10.314,-0.261,2.277,0.019,0.6723,0.10350000000000001,0.026000000000000002,-0.019,-0.011
1670265789.479956,-10.327,-0.259,2.257,0.0166,0.6715,0.1043,0.01,-0.025,-0.013000000000000001
1670265789.5199559,-10.302,-0.271,2.287,0.0201,0.6706000000000001,0.1073,0.011,-0.015,0.0
1670265789.559956,-10.338000000000001,-0.252,2.291,0.0188,0.6711,0.1076,0.017,-0.008,0.003
1670265789.599956,-10.319,-0.26,2.2840000000000003,0.0178,0.671,0.1058,0.023,-0.006,0.002
1670265789.639956,-10.287,-0.23500000000000001,2.324,0.0177,0.6695,0.1068,0.024,-0.007,-0.001
