timestamp,acc_x,acc_y,acc_z,magn_x,magn_y,magn_z,gyro_x,gyro_y,gyro_z
1670356333.08,-9.3,0.08,4.687,-0.6487,-0.3884,0.3551,-0.001,0.017,-0.045
1670356333.12,-9.347,-0.049,4.618,-0.6541,-0.3935,0.35700000000000004,0.003,0.035,-0.062
1670356333.16,-9.293000000000001,0.028,4.597,-0.6513,-0.39030000000000004,0.3547,-0.007,0.037,-0.059000000000000004
1670356333.2,-9.279,-0.013000000000000001,4.5920000000000005,-0.6496000000000001,-0.389,0.3548,-0.015,0.02,-0.043000000000000003
1670356333.24,-9.337,0.047,4.63,-0.6537000000000001,-0.3921,0.3528,-0.003,0.019,-0.06
1670356333.28,-9.336,0.048,4.624,-0.6469,-0.391,0.3579,0.017,0.012,-0.065
1670356333.32,-9.267,-0.09,4.643,-0.6493,-0.391,0.35300000000000004,-0.003,0.01,-0.06
1670356333.36,-9.303,0.024,4.638,-0.6483,-0.3927,0.3541,-0.007,0.006,-0.042
1670356333.4,-9.331,-0.062,4.634,-0.6454000000000001,-0.3912,0.3557,0.003,0.02,-0.053
1670356333.44,-9.265,0.027,4.613,-0.6478,-0.39490000000000003,0.3563,0.007,0.017,-0.062
1670356333.48,-9.26,-0.007,4.652,-0.6487,-0.39130000000000004,0.35760000000000003,0.003,0.01,-0.049
1670356333.52,-9.292,-0.003,4.628,-0.6521,-0.39080000000000004,0.36160000000000003,0.012,0.012,-0.053
1670356333.559999,-9.339,-0.014,4.6690000000000005,-0.6498,-0.3932,0.3561,0.013000000000000001,0.013000000000000001,-0.058
1670356333.599999,-9.305,-0.023,4.643,-0.649,-0.391,0.35900000000000004,0.005,0.019,-0.056
1670356333.639999,-9.316,-0.028,4.624,-0.6467,-0.3916,0.35650000000000004,-0.003,0.025,-0.042
1670356333.6799989,-9.332,-0.005,4.603,-0.6493,-0.38970000000000005,0.3582,-0.005,0.025,-0.045
1670356333.719999,-9.326,0.011,4.6450000000000005,-0.6513,-0.391,0.35660000000000003,0.002,0.031,-0.05
1670356333.759999,-9.317,-0.028,4.612,-0.6479,-0.3905,0.3549,0.005,0.027,-0.052000000000000005
1670356333.799999,-9.31,-0.004,4.583,-0.6505000000000001,-0.3934,0.3552,-0.001,0.025,-0.055
1670356333.839999,-9.308,-0.01,4.624,-0.6488,-0.3902,0.35760000000000003,-0.002,0.026000000000000002,-0.06
1670356333.879999,-9.33,-0.012,4.631,-0.6482,-0.39030000000000004,0.3546,0.004,0.021,-0.051000000000000004
1670356333.919999,-9.318,0.007,4.61,-0.6473,-0.39380000000000004,0.3551,0.014,0.018000000000000002,-0.054
1670356333.959999,-9.284,-0.026000000000000002,4.599,-0.6476000000000001,-0.3894,0.3548,0.003,0.014,-0.052000000000000005
1670356333.999999,-9.367,-0.01,4.666,-0.6457,-0.3902,0.3557,0.003,0.012,-0.049
1670356334.039999,-9.383000000000001,-0.022,4.643,-0.6532,-0.39,0.3603,0.013000000000000001,0.028,-0.056
1670356334.079999,-9.284,-0.012,4.623,-0.647,-0.39180000000000004,0.35700000000000004,0.002,0.03,-0.054
1670356334.119999,-9.294,-0.028,4.575,-0.6466000000000001,-0.387,0.3542,-0.008,0.016,-0.046
1670356334.159999,-9.329,0.011,4.619,-0.6468,-0.392,0.35650000000000004,-0.001,0.013000000000000001,-0.047
1670356334.199999,-9.323,0.008,4.623,-0.6595000000000001,-0.392,0.3568,0.009000000000000001,0.016,-0.063
1670356334.239999,-9.278,-0.076,4.631,-0.6502,-0.3926,0.3577,0.009000000000000001,0.017,-0.057
1670356334.279999,-9.272,-0.002,4.633,-0.6502,-0.3922,0.33530000000000004,-0.012,0.019,-0.052000000000000005
1670356334.319999,-9.272,-0.029,4.597,-0.6502,-0.3907,0.38770000000000004,0.012,0.012,-0.043000000000000003
1670356334.359999,-9.362,-0.029,4.624,-0.6517000000000001,-0.3907,0.38770000000000004,0.012,0.024,-0.053
1670356334.399999,-9.321,0.031,4.624,-0.6549,-0.3915,0.3573,0.018000000000000002,0.024,-0.05
1670356334.439999,-9.265,-0.026000000000000002,4.631,-0.6502,-0.3901,0.3537,0.009000000000000001,0.015,-0.042
1670356334.479999,-9.32,-0.004,4.605,-0.6481,-0.39280000000000004,0.3549,0.009000000000000001,0.011,-0.048
1670356334.519999,-9.357,0.001,4.611,-0.6463,-0.3886,0.3679,0.006,0.009000000000000001,-0.061
1670356334.559999,-9.329,-0.042,4.64,-0.6469,-0.3916,0.3687,-0.004,0.014,-0.049
1670356334.599998,-9.317,-0.018000000000000002,4.6370000000000005,-0.6465000000000001,-0.3905,0.3541,-0.002,0.018000000000000002,-0.049
1670356334.639998,-9.327,-0.004,4.62,-0.6594,-0.3915,0.35500000000000004,0.01,0.018000000000000002,-0.051000000000000004
1670356334.679998,-9.309000000000001,-0.002,4.6000000000000005,-0.6473,-0.38970000000000005,0.3546,0.003,0.025,-0.049
1670356334.719998,-9.311,-0.038,4.678,-0.6518,-0.3925,0.36000000000000004,0.001,0.025,-0.048
1670356334.759998,-9.325000000000001,0.002,4.63,-0.6484,-0.3914,0.35400000000000004,0.002,0.014,-0.05
1670356334.799998,-9.329,-0.02,4.6000000000000005,-0.6579,-0.39540000000000003,0.3643,0.006,0.014,-0.053
1670356334.839998,-9.339,-0.006,4.611,-0.6486000000000001,-0.39030000000000004,0.3548,0.01,0.014,-0.053
1670356334.879998,-9.311,0.0,4.615,-0.6498,-0.3907,0.3587,0.015,0.018000000000000002,-0.056
1670356334.919998,-9.283,-0.059000000000000004,4.636,-0.6482,-0.3906,0.3573,0.003,0.015,-0.048
1670356334.959998,-9.368,0.001,4.666,-0.6486000000000001,-0.3935,0.3634,0.006,0.023,-0.041
1670356334.999998,-9.4,0.056,4.642,-0.6474000000000001,-0.39130000000000004,0.3538,0.009000000000000001,0.025,-0.061
1670356335.039998,-9.303,-0.017,4.602,-0.6464000000000001,-0.3879,0.35900000000000004,0.005,0.025,-0.064
1670356335.079998,-9.287,-0.053,4.5920000000000005,-0.6456000000000001,-0.3905,0.3588,-0.004,0.014,-0.046
1670356335.119998,-9.305,0.016,4.642,-0.648,-0.3925,0.3548,-0.004,0.018000000000000002,-0.057
1670356335.159998,-9.341000000000001,0.017,4.675,-0.6489,-0.3902,0.3567,0.013000000000000001,0.013000000000000001,-0.058
1670356335.199998,-9.309000000000001,-0.033,4.646,-0.6472,-0.39030000000000004,0.3577,0.015,0.017,-0.063
1670356335.239998,-9.319,-0.048,4.603,-0.6505000000000001,-0.39080000000000004,0.3574,-0.004,0.012,-0.044
1670356335.279998,-9.355,0.025,4.654,-0.6466000000000001,-0.38830000000000003,0.3554,0.006,0.026000000000000002,-0.052000000000000005
1670356335.319998,-9.342,0.007,4.598,-0.6477,-0.391,0.3568,0.014,0.028,-0.054
1670356335.359998,-9.277000000000001,-0.036000000000000004,4.595,-0.6463,-0.3922,0.3587,0.01,0.027,-0.053
1670356335.399998,-9.309000000000001,-0.025,4.619,-0.6484,-0.391,0.3549,0.002,0.018000000000000002,-0.048
1670356335.439998,-9.33,0.008,4.599,-0.6474000000000001,-0.3912,0.35600000000000004,0.006,0.014,-0.063
1670356335.479998,-9.344,-0.042,4.641,-0.649,-0.39,0.3567,0.005,0.011,-0.053
1670356335.519998,-9.303,0.004,4.606,-0.6467,-0.38970000000000005,0.35660000000000003,0.016,0.023,-0.064
1670356335.559998,-9.308,-0.067,4.5920000000000005,-0.6469,-0.3871,0.35550000000000004,0.009000000000000001,0.019,-0.061
1670356335.599998,-9.312,-0.016,4.606,-0.6491,-0.38880000000000003,0.3578,0.0,0.008,-0.049
1670356335.639997,-9.298,-0.038,4.627,-0.6494,-0.391,0.35810000000000003,-0.003,0.023,-0.047
1670356335.679997,-9.339,-0.025,4.636,-0.6469,-0.3885,0.3557,0.017,0.008,-0.058
1670356335.719997,-9.294,-0.014,4.628,-0.6487,-0.3911,0.35710000000000003,0.016,0.012,-0.063
1670356335.759997,-9.321,-0.035,4.625,-0.6491,-0.392,0.3568,0.009000000000000001,0.012,-0.049
1670356335.799997,-9.305,-0.042,4.61,-0.6487,-0.3907,0.3574,0.009000000000000001,0.013000000000000001,-0.05
1670356335.839997,-9.321,-0.004,4.664,-0.6477,-0.389,0.35710000000000003,0.01,0.015,-0.057
1670356335.879997,-9.266,-0.053,4.628,-0.6461,-0.39080000000000004,0.3594,0.006,0.013000000000000001,-0.053
1670356335.919997,-9.3,0.023,4.6080000000000005,-0.6465000000000001,-0.389,0.3574,0.0,0.015,-0.037
1670356335.959997,-9.349,-0.075,4.631,-0.6487,-0.39130000000000004,0.3572,0.005,0.035,-0.054
1670356335.999997,-9.291,0.011,4.616,-0.6487,-0.3894,0.3598,0.007,0.027,-0.058
1670356336.039997,-9.301,-0.061,4.591,-0.6479,-0.39130000000000004,0.3561,-0.007,0.025,-0.044
1670356336.079997,-9.315,-0.011,4.594,-0.6477,-0.388,0.3556,-0.001,0.012,-0.046
1670356336.119997,-9.34,-0.01,4.621,-0.6494,-0.39130000000000004,0.35750000000000004,0.014,0.007,-0.059000000000000004
1670356336.159997,-9.286,-0.092,4.622,-0.6452,-0.3886,0.35700000000000004,0.005,0.009000000000000001,-0.068
1670356336.199997,-9.282,-0.007,4.65,-0.6491,-0.3924,0.3593,-0.006,0.005,-0.05
1670356336.239997,-9.319,-0.08700000000000001,4.648,-0.649,-0.38980000000000004,0.3559,0.0,0.013000000000000001,-0.045
1670356336.279997,-9.293000000000001,-0.016,4.6530000000000005,-0.649,-0.3894,0.3563,0.007,0.019,-0.053
1670356336.319997,-9.275,-0.046,4.649,-0.6476000000000001,-0.3917,0.35710000000000003,0.004,0.017,-0.045
1670356336.359997,-9.3,-0.009000000000000001,4.628,-0.6483,-0.39280000000000004,0.35750000000000004,0.0,0.015,-0.044
1670356336.399997,-9.314,0.008,4.607,-0.649,-0.38930000000000003,0.3579,0.014,0.01,-0.054
1670356336.439997,-9.336,-0.061,4.634,-0.6479,-0.388,0.35600000000000004,0.016,0.017,-0.063
1670356336.479997,-9.31,-0.031,4.626,-0.6472,-0.3919,0.35700000000000004,-0.008,0.016,-0.043000000000000003
1670356336.519997,-9.319,-0.007,4.623,-0.6493,-0.3895,0.3563,-0.011,0.022,-0.042
1670356336.5599968,-9.329,-0.035,4.628,-0.6493,-0.3919,0.3386,0.002,0.023,-0.054
1670356336.599997,-9.329,-0.035,4.658,-0.6487,-0.3919,0.36710000000000004,0.001,0.025,-0.057
1670356336.639997,-9.299,-0.052000000000000005,4.658,-0.6516000000000001,-0.3895,0.36710000000000004,0.0,0.023,-0.056
1670356336.679996,-9.291,-0.058,4.647,-0.6461,-0.38880000000000003,0.3592,0.001,0.018000000000000002,-0.047
1670356336.719996,-9.297,-0.031,4.686,-0.6627000000000001,-0.3925,0.389,0.006,0.016,-0.058
1670356336.759996,-9.3,0.005,4.646,-0.6515000000000001,-0.3899,0.3357,0.004,0.014,-0.057
1670356336.799996,-9.236,-0.045,4.654,-0.6521,-0.3921,0.3638,0.006,0.013000000000000001,-0.039
1670356336.839996,-9.342,0.009000000000000001,4.646,-0.6464000000000001,-0.39030000000000004,0.36010000000000003,0.018000000000000002,0.02,-0.04
1670356336.879996,-9.356,-0.094,4.616,-0.6489,-0.39280000000000004,0.3648,0.005,0.021,-0.052000000000000005
1670356336.919996,-9.254,0.004,4.615,-0.6552,-0.3906,0.3593,-0.006,0.023,-0.048
1670356336.959996,-9.299,-0.049,4.624,-0.6538,-0.3907,0.3609,-0.002,0.011,-0.037
1670356336.999996,-9.311,-0.007,4.633,-0.6477,-0.38830000000000003,0.3592,0.01,0.006,-0.06
1670356337.039996,-9.323,-0.023,4.659,-0.6498,-0.38880000000000003,0.3579,0.005,0.006,-0.054
1670356337.079996,-9.277000000000001,-0.108,4.623,-0.6485000000000001,-0.38920000000000005,0.35760000000000003,-0.006,0.002,-0.057
1670356337.119996,-9.262,0.015,4.655,-0.6479,-0.3914,0.3582,0.0,0.013000000000000001,-0.041
1670356337.159996,-9.334,-0.098,4.622,-0.6495000000000001,-0.3905,0.3582,0.009000000000000001,0.016,-0.05
1670356337.199996,-9.291,-0.001,4.65,-0.6486000000000001,-0.38880000000000003,0.3563,0.016,0.019,-0.043000000000000003
1670356337.239996,-9.283,-0.029,4.6610000000000005,-0.6508,-0.39030000000000004,0.3567,0.007,0.012,-0.04
1670356337.279996,-9.302,-0.032,4.6450000000000005,-0.6483,-0.39030000000000004,0.35650000000000004,0.005,0.008,-0.058
1670356337.319996,-9.31,-0.017,4.676,-0.6477,-0.39,0.3568,0.004,0.013000000000000001,-0.056
1670356337.359996,-9.295,-0.056,4.646,-0.6495000000000001,-0.3906,0.3578,-0.002,0.014,-0.053
1670356337.399996,-9.311,-0.031,4.638,-0.6497,-0.39080000000000004,0.3577,-0.004,0.012,-0.05
1670356337.439996,-9.287,-0.056,4.659,-0.6483,-0.3905,0.35910000000000003,0.001,0.017,-0.047
1670356337.479996,-9.291,-0.04,4.6770000000000005,-0.6479,-0.3905,0.3583,0.003,0.016,-0.05
1670356337.519996,-9.321,-0.041,4.63,-0.6486000000000001,-0.3889,0.3584,0.009000000000000001,0.019,-0.054
1670356337.559996,-9.294,-0.049,4.657,-0.6471,-0.3911,0.3553,0.018000000000000002,0.008,-0.053
1670356337.5999959,-9.285,-0.08,4.695,-0.6507000000000001,-0.38880000000000003,0.35760000000000003,0.009000000000000001,0.007,-0.056
1670356337.639996,-9.302,-0.028,4.686,-0.6483,-0.3904,0.3572,0.012,0.011,-0.045
1670356337.679996,-9.339,0.011,4.67,-0.6518,-0.39130000000000004,0.35700000000000004,0.018000000000000002,0.014,-0.047
1670356337.719995,-9.281,-0.112,4.609,-0.6497,-0.3894,0.35800000000000004,0.005,0.021,-0.049
1670356337.759995,-9.221,-0.023,4.628,-0.6475000000000001,-0.391,0.3573,0.0,0.02,-0.05
1670356337.799995,-9.302,-0.006,4.665,-0.6479,-0.3935,0.3577,0.007,0.012,-0.053
1670356337.839995,-9.296,-0.016,4.689,-0.6523,-0.3916,0.35800000000000004,0.014,0.008,-0.059000000000000004
1670356337.879995,-9.281,-0.04,4.7,-0.6515000000000001,-0.3919,0.3604,0.007,0.008,-0.064
1670356337.919995,-9.308,-0.062,4.6770000000000005,-0.6512,-0.39080000000000004,0.3577,-0.01,0.018000000000000002,-0.048
1670356337.959995,-9.326,0.038,4.651,-0.6492,-0.3889,0.3582,0.004,0.022,-0.045
1670356337.999995,-9.335,-0.02,4.695,-0.6469,-0.38820000000000005,0.3598,0.012,0.025,-0.05
1670356338.039995,-9.215,-0.037,4.643,-0.6469,-0.39180000000000004,0.3579,0.011,0.021,-0.043000000000000003
1670356338.079995,-9.291,-0.026000000000000002,4.705,-0.6447,-0.3907,0.35660000000000003,0.009000000000000001,0.014,-0.04
1670356338.119995,-9.328,0.006,4.651,-0.6508,-0.3922,0.3617,0.005,0.019,-0.054
1670356338.159995,-9.282,-0.053,4.634,-0.6483,-0.39,0.35910000000000003,0.004,0.012,-0.058
1670356338.199995,-9.272,-0.053,4.658,-0.6461,-0.3919,0.3559,0.0,0.012,-0.049
1670356338.239995,-9.298,-0.004,4.654,-0.6492,-0.3902,0.3564,0.0,0.016,-0.054
1670356338.279995,-9.314,-0.02,4.66,-0.6511,-0.39130000000000004,0.3568,0.008,0.021,-0.052000000000000005
1670356338.319995,-9.32,-0.025,4.67,-0.6498,-0.3914,0.35950000000000004,0.006,0.019,-0.053
1670356338.359995,-9.279,-0.031,4.654,-0.6489,-0.39080000000000004,0.36000000000000004,0.008,0.009000000000000001,-0.049
1670356338.3999949,-9.298,-0.014,4.697,-0.6444000000000001,-0.3914,0.35950000000000004,0.008,0.01,-0.05
1670356338.439995,-9.309000000000001,-0.028,4.697,-0.6495000000000001,-0.393,0.3593,0.011,0.009000000000000001,-0.061
1670356338.479995,-9.23,-0.029,4.688,-0.649,-0.3891,0.35700000000000004,0.001,0.007,-0.049
1670356338.519995,-9.287,0.022,4.635,-0.6505000000000001,-0.3895,0.3574,0.006,0.014,-0.042
1670356338.559995,-9.35,-0.07200000000000001,4.688,-0.648,-0.3916,0.3564,0.018000000000000002,0.022,-0.054
1670356338.599995,-9.276,0.013000000000000001,4.666,-0.6497,-0.3899,0.35810000000000003,0.01,0.026000000000000002,-0.056
1670356338.6399949,-9.254,-0.047,4.66,-0.6499,-0.39280000000000004,0.35700000000000004,-0.001,0.018000000000000002,-0.052000000000000005
1670356338.679995,-9.27,0.0,4.688,-0.6473,-0.38880000000000003,0.3587,-0.005,0.014,-0.049
1670356338.719995,-9.291,0.011,4.724,-0.6479,-0.3907,0.36060000000000003,0.013000000000000001,0.003,-0.057
1670356338.759995,-9.258000000000001,-0.097,4.7010000000000005,-0.6592,-0.3921,0.3609,0.008,0.01,-0.065
1670356338.799995,-9.248,0.013000000000000001,4.671,-0.6518,-0.3911,0.3435,-0.01,0.015,-0.053
1670356338.839994,-9.285,-0.091,4.68,-0.6532,-0.3902,0.364,0.005,0.019,-0.048
1670356338.879994,-9.285,-0.091,4.686,-0.6532,-0.3902,0.3644,0.013000000000000001,0.018000000000000002,-0.055
1670356338.919994,-9.267,0.0,4.686,-0.6517000000000001,-0.3916,0.3644,0.016,0.015,-0.048
1670356338.959994,-9.256,-0.027,4.711,-0.6549,-0.3917,0.3774,0.008,0.008,-0.048
1670356338.999994,-9.281,0.0,4.668,-0.6488,-0.39030000000000004,0.35150000000000003,0.01,0.007,-0.054
1670356339.039994,-9.282,-0.002,4.724,-0.6504,-0.39080000000000004,0.3506,0.01,0.011,-0.06
1670356339.079994,-9.281,-0.043000000000000003,4.7250000000000005,-0.6469,-0.3914,0.3587,-0.002,0.007,-0.049
1670356339.119994,-9.275,-0.026000000000000002,4.705,-0.6476000000000001,-0.3905,0.3592,0.0,0.012,-0.046
1670356339.159994,-9.272,-0.01,4.678,-0.6496000000000001,-0.3891,0.35860000000000003,0.007,0.019,-0.051000000000000004
1670356339.1999938,-9.255,-0.011,4.6850000000000005,-0.6488,-0.3907,0.3592,0.01,0.027,-0.051000000000000004
1670356339.239994,-9.283,-0.039,4.696,-0.6473,-0.39130000000000004,0.35900000000000004,0.003,0.023,-0.046
1670356339.279994,-9.264,-0.037,4.706,-0.6474000000000001,-0.3905,0.3559,0.007,0.024,-0.048
1670356339.319994,-9.294,-0.002,4.724,-0.6513,-0.3906,0.3592,-0.011,0.041,-0.036000000000000004
1670356339.359994,-9.242,0.008,4.681,-0.6479,-0.3914,0.36110000000000003,0.003,0.026000000000000002,-0.034
1670356339.399994,-9.294,0.011,4.684,-0.648,-0.3899,0.36010000000000003,0.03,0.019,-0.053
1670356339.4399939,-9.329,0.04,4.681,-0.6482,-0.391,0.3588,0.036000000000000004,0.012,-0.063
1670356339.479994,-9.188,-0.079,4.6690000000000005,-0.6496000000000001,-0.39080000000000004,0.35850000000000004,-0.001,0.013000000000000001,-0.039
1670356339.519994,-9.288,0.059000000000000004,4.7010000000000005,-0.6487,-0.3907,0.3624,0.007,0.003,-0.029
1670356339.559994,-9.307,-0.076,4.687,-0.648,-0.39080000000000004,0.3587,0.008,0.023,-0.058
1670356339.599994,-9.244,0.058,4.663,-0.6531,-0.3955,0.3628,0.0,0.02,-0.058
1670356339.639994,-9.263,-0.043000000000000003,4.662,-0.6483,-0.39030000000000004,0.3592,-0.016,0.007,-0.041
1670356339.6799939,-9.283,0.013000000000000001,4.715,-0.6477,-0.3912,0.35760000000000003,0.003,0.007,-0.061
1670356339.719994,-9.272,0.017,4.777,-0.6496000000000001,-0.3889,0.3599,0.011,0.012,-0.065
1670356339.759994,-9.233,-0.08700000000000001,4.714,-0.6462,-0.3925,0.36200000000000004,-0.008,0.017,-0.056
1670356339.799994,-9.218,0.001,4.7,-0.649,-0.3922,0.3573,-0.014,0.021,-0.041
1670356339.839994,-9.282,-0.056,4.718,-0.6468,-0.39,0.3592,-0.004,0.036000000000000004,-0.056
1670356339.879993,-9.235,0.004,4.683,-0.6488,-0.3896,0.36110000000000003,0.009000000000000001,0.041,-0.063
1670356339.919993,-9.242,-0.048,4.704,-0.6553,-0.3925,0.3624,0.0,0.026000000000000002,-0.04
1670356339.959993,-9.276,0.002,4.6690000000000005,-0.6516000000000001,-0.39130000000000004,0.36060000000000003,0.001,0.024,-0.05
1670356339.9999928,-9.312,-0.007,4.713,-0.6483,-0.3889,0.3598,0.002,0.033,-0.065
1670356340.039993,-9.281,-0.056,4.632,-0.6496000000000001,-0.3881,0.3597,0.0,0.027,-0.063
1670356340.079993,-9.278,-0.07,4.663,-0.6493,-0.3915,0.35760000000000003,-0.016,0.026000000000000002,-0.052000000000000005
1670356340.119993,-9.307,-0.022,4.655,-0.6479,-0.3895,0.3622,-0.008,0.036000000000000004,-0.05
1670356340.159993,-9.309000000000001,-0.053,4.671,-0.6488,-0.39080000000000004,0.36060000000000003,-0.004,0.024,-0.06
1670356340.199993,-9.278,-0.08,4.651,-0.6463,-0.38770000000000004,0.3567,-0.006,0.017,-0.052000000000000005
1670356340.2399929,-9.266,-0.047,4.646,-0.6437,-0.388,0.3624,-0.005,0.011,-0.048
1670356340.279993,-9.302,-0.037,4.6610000000000005,-0.6505000000000001,-0.38920000000000005,0.3579,0.004,0.014,-0.055
1670356340.319993,-9.298,-0.055,4.657,-0.6502,-0.3912,0.3613,0.018000000000000002,0.007,-0.048
1670356340.359993,-9.281,-0.088,4.67,-0.6479,-0.3881,0.3577,0.008,0.002,-0.053
1670356340.399993,-9.309000000000001,-0.047,4.721,-0.6471,-0.38920000000000005,0.35850000000000004,0.008,0.007,-0.046
1670356340.439993,-9.33,-0.01,4.6690000000000005,-0.6476000000000001,-0.38880000000000003,0.3598,0.017,0.009000000000000001,-0.036000000000000004
1670356340.4799929,-9.245000000000001,-0.12,4.674,-0.6457,-0.3879,0.3573,-0.004,0.022,-0.048
1670356340.519993,-9.212,-0.034,4.63,-0.6477,-0.3909,0.35850000000000004,0.0,0.015,-0.049
1670356340.559993,-9.290000000000001,-0.029,4.696,-0.6469,-0.38880000000000003,0.3584,0.001,0.013000000000000001,-0.048
1670356340.599993,-9.279,-0.032,4.695,-0.6479,-0.385,0.3568,0.004,0.009000000000000001,-0.056
1670356340.639993,-9.318,-0.067,4.715,-0.648,-0.3884,0.3562,0.012,0.012,-0.058
1670356340.679993,-9.317,-0.1,4.704,-0.6485000000000001,-0.3902,0.35700000000000004,0.001,0.008,-0.053
1670356340.7199929,-9.311,0.016,4.739,-0.6482,-0.39130000000000004,0.35760000000000003,0.01,0.013000000000000001,-0.045
1670356340.759993,-9.3,-0.07100000000000001,4.682,-0.6493,-0.38820000000000005,0.3588,0.015,0.021,-0.048
1670356340.799993,-9.254,-0.044,4.6610000000000005,-0.648,-0.3911,0.3614,0.014,0.026000000000000002,-0.052000000000000005
1670356340.839993,-9.26,-0.026000000000000002,4.679,-0.6515000000000001,-0.3891,0.3597,0.012,0.01,-0.041
1670356340.879993,-9.321,-0.014,4.705,-0.6536000000000001,-0.3889,0.35900000000000004,0.013000000000000001,0.004,-0.048
1670356340.919992,-9.274000000000001,-0.029,4.682,-0.6534,-0.3904,0.36310000000000003,0.021,0.01,-0.053
1670356340.959992,-9.264,-0.064,4.7,-0.6487,-0.3902,0.3603,0.003,0.012,-0.054
1670356340.999992,-9.271,-0.031,4.66,-0.649,-0.39030000000000004,0.3578,0.002,0.018000000000000002,-0.049
1670356341.0399919,-9.293000000000001,-0.023,4.708,-0.6485000000000001,-0.3922,0.36050000000000004,0.007,0.028,-0.042
1670356341.079992,-9.257,-0.017,4.704,-0.6504,-0.3914,0.38,0.011,0.022,-0.054
1670356341.119992,-9.257,-0.043000000000000003,4.679,-0.6504,-0.38970000000000005,0.3794,0.004,0.026000000000000002,-0.051000000000000004
1670356341.159992,-9.292,-0.043000000000000003,4.716,-0.6502,-0.38970000000000005,0.3794,0.008,0.018000000000000002,-0.053
1670356341.199992,-9.266,-0.035,4.716,-0.6491,-0.3919,0.3624,0.005,0.014,-0.053
1670356341.239992,-9.267,-0.019,4.695,-0.6488,-0.39130000000000004,0.3649,0.002,0.008,-0.052000000000000005
1670356341.2799919,-9.226,-0.031,4.7010000000000005,-0.6502,-0.3891,0.3654,0.009000000000000001,0.011,-0.047
1670356341.319992,-9.316,-0.033,4.676,-0.6479,-0.3904,0.3457,0.021,0.013000000000000001,-0.047
1670356341.359992,-9.319,-0.058,4.72,-0.649,-0.39180000000000004,0.3619,0.012,0.018000000000000002,-0.052000000000000005
1670356341.399992,-9.269,-0.005,4.667,-0.6485000000000001,-0.3902,0.3582,0.005,0.024,-0.057
1670356341.439992,-9.261000000000001,-0.055,4.625,-0.6507000000000001,-0.3916,0.35950000000000004,-0.001,0.015,-0.052000000000000005
1670356341.479992,-9.269,-0.02,4.699,-0.6478,-0.3915,0.3598,0.009000000000000001,0.007,-0.061
1670356341.5199919,-9.3,-0.019,4.713,-0.648,-0.38980000000000004,0.36010000000000003,0.016,0.009000000000000001,-0.053
1670356341.559992,-9.248,-0.069,4.6850000000000005,-0.6504,-0.3904,0.35850000000000004,0.003,0.008,-0.061
1670356341.599992,-9.233,-0.006,4.71,-0.6498,-0.3919,0.35760000000000003,0.012,0.009000000000000001,-0.047
1670356341.639992,-9.285,-0.097,4.688,-0.6466000000000001,-0.3909,0.36010000000000003,0.015,0.018000000000000002,-0.05
1670356341.679992,-9.26,0.014,4.688,-0.653,-0.39380000000000004,0.3703,0.013000000000000001,0.023,-0.054
1670356341.719992,-9.239,-0.031,4.698,-0.6464000000000001,-0.38880000000000003,0.35850000000000004,0.008,0.021,-0.049
1670356341.759992,-9.274000000000001,-0.018000000000000002,4.7090000000000005,-0.6635,-0.39690000000000003,0.3653,0.01,0.008,-0.052000000000000005
1670356341.799992,-9.293000000000001,0.001,4.688,-0.6519,-0.38970000000000005,0.3588,0.015,0.013000000000000001,-0.062
1670356341.839992,-9.281,-0.052000000000000005,4.702,-0.6493,-0.3905,0.35850000000000004,0.003,0.01,-0.055
1670356341.879992,-9.265,-0.028,4.706,-0.6468,-0.39080000000000004,0.35960000000000003,-0.004,0.016,-0.05
1670356341.919992,-9.28,-0.017,4.6930000000000005,-0.6532,-0.3917,0.364,0.005,0.021,-0.048
1670356341.959991,-9.264,-0.028,4.7090000000000005,-0.6538,-0.39330000000000004,0.3629,0.008,0.019,-0.053
1670356341.999991,-9.275,-0.04,4.712,-0.6501,-0.39080000000000004,0.35950000000000004,0.005,0.014,-0.049
1670356342.039991,-9.285,-0.017,4.713,-0.6476000000000001,-0.39130000000000004,0.35810000000000003,0.005,0.012,-0.055
1670356342.0799909,-9.25,-0.05,4.6930000000000005,-0.6496000000000001,-0.39080000000000004,0.3579,0.009000000000000001,0.008,-0.056
1670356342.119991,-9.289,-0.094,4.745,-0.6482,-0.38870000000000005,0.35850000000000004,0.001,0.01,-0.051000000000000004
1670356342.159991,-9.255,-0.029,4.703,-0.6491,-0.39,0.36010000000000003,0.002,0.009000000000000001,-0.053
1670356342.199991,-9.297,0.08600000000000001,4.699,-0.6485000000000001,-0.39080000000000004,0.3599,0.023,0.017,-0.054
1670356342.239991,-9.262,-0.122,4.716,-0.6484,-0.3919,0.35760000000000003,0.013000000000000001,0.022,-0.062
1670356342.279991,-9.23,-0.034,4.66,-0.6494,-0.3902,0.3599,0.0,0.022,-0.05
1670356342.3199909,-9.267,-0.019,4.735,-0.6493,-0.3927,0.3607,-0.004,0.014,-0.042
1670356342.359991,-9.272,-0.015,4.7540000000000004,-0.6512,-0.3905,0.3597,0.003,0.009000000000000001,-0.053
1670356342.399991,-9.274000000000001,-0.053,4.737,-0.6483,-0.391,0.3592,0.008,0.011,-0.054
1670356342.439991,-9.278,-0.10400000000000001,4.712,-0.6509,-0.3905,0.3624,-0.008,0.018000000000000002,-0.05
1670356342.479991,-9.284,0.034,4.72,-0.6503,-0.3899,0.35860000000000003,0.0,0.018000000000000002,-0.039
1670356342.519991,-9.287,-0.026000000000000002,4.7250000000000005,-0.6464000000000001,-0.39030000000000004,0.35900000000000004,0.007,0.027,-0.042
1670356342.559991,-9.231,-0.033,4.716,-0.6507000000000001,-0.38970000000000005,0.3607,0.008,0.031,-0.049
1670356342.599991,-9.234,-0.017,4.674,-0.6498,-0.38880000000000003,0.3613,0.004,0.019,-0.047
1670356342.639991,-9.294,-0.008,4.712,-0.651,-0.38770000000000004,0.3598,0.0,0.02,-0.053
1670356342.679991,-9.290000000000001,-0.035,4.739,-0.6504,-0.38920000000000005,0.36200000000000004,0.002,0.015,-0.063
1670356342.719991,-9.281,-0.065,4.698,-0.649,-0.3926,0.3609,-0.001,0.016,-0.052000000000000005
1670356342.759991,-9.276,-0.028,4.705,-0.6508,-0.3945,0.3598,-0.01,0.021,-0.048
1670356342.799991,-9.258000000000001,-0.044,4.738,-0.6496000000000001,-0.38870000000000005,0.3574,-0.009000000000000001,0.019,-0.053
1670356342.839991,-9.267,-0.044,4.7010000000000005,-0.6493,-0.38830000000000003,0.3584,0.008,0.023,-0.053
1670356342.879991,-9.258000000000001,-0.073,4.727,-0.6523,-0.388,0.3582,0.0,0.023,-0.051000000000000004
1670356342.919991,-9.26,-0.002,4.726,-0.652,-0.3886,0.3618,0.005,0.01,-0.045
1670356342.959991,-9.266,-0.058,4.723,-0.6561,-0.39440000000000003,0.3612,0.003,0.017,-0.053
1670356342.99999,-9.269,-0.092,4.722,-0.6494,-0.38930000000000003,0.3614,0.001,0.016,-0.052000000000000005
1670356343.03999,-9.275,-0.029,4.7250000000000005,-0.6515000000000001,-0.389,0.35810000000000003,0.006,0.007,-0.049
1670356343.07999,-9.333,0.056,4.741,-0.654,-0.39130000000000004,0.3619,0.016,0.012,-0.042
1670356343.1199899,-9.241,-0.133,4.706,-0.6499,-0.3889,0.3627,0.008,0.029,-0.058
1670356343.15999,-9.216000000000001,-0.036000000000000004,4.6850000000000005,-0.6487,-0.39,0.3614,-0.005,0.024,-0.055
1670356343.19999,-9.262,-0.012,4.687,-0.6516000000000001,-0.3891,0.3579,-0.012,0.017,-0.039
1670356343.23999,-9.265,-0.02,4.737,-0.6496000000000001,-0.391,0.3587,0.004,0.012,-0.06
1670356343.27999,-9.279,-0.064,4.758,-0.6478,-0.3907,0.3612,0.001,0.014,-0.063
1670356343.31999,-9.281,-0.10200000000000001,4.716,-0.6502,-0.38720000000000004,0.3558,-0.011,0.013000000000000001,-0.052000000000000005
1670356343.35999,-9.286,0.035,4.712,-0.6507000000000001,-0.3921,0.3506,-0.005,0.01,-0.043000000000000003
1670356343.39999,-9.286,0.035,4.731,-0.6507000000000001,-0.3921,0.3433,0.007,0.03,-0.051000000000000004
1670356343.43999,-9.278,-0.059000000000000004,4.731,-0.652,-0.3884,0.3433,0.01,0.027,-0.058
1670356343.47999,-9.215,-0.07100000000000001,4.695,-0.6512,-0.3889,0.3428,0.004,0.019,-0.045
1670356343.51999,-9.274000000000001,-0.065,4.686,-0.6523,-0.38970000000000005,0.35200000000000004,0.0,0.014,-0.049
1670356343.55999,-9.282,-0.017,4.764,-0.6509,-0.3919,0.3513,0.01,0.013000000000000001,-0.05
1670356343.59999,-9.236,-0.05,4.71,-0.6544,-0.38770000000000004,0.3657,0.002,0.011,-0.056
1670356343.63999,-9.263,-0.069,4.712,-0.6481,-0.3917,0.3604,0.007,0.014,-0.054
1670356343.67999,-9.271,-0.056,4.719,-0.6618,-0.3885,0.3598,0.003,0.021,-0.051000000000000004
1670356343.71999,-9.25,-0.058,4.689,-0.6469,-0.38820000000000005,0.3602,0.0,0.018000000000000002,-0.055
1670356343.75999,-9.243,-0.054,4.727,-0.6517000000000001,-0.39130000000000004,0.3665,0.001,0.02,-0.05
1670356343.79999,-9.248,-0.047,4.735,-0.6471,-0.3874,0.35760000000000003,0.006,0.013000000000000001,-0.048
1670356343.83999,-9.28,-0.048,4.745,-0.6574,-0.3917,0.3643,0.012,0.016,-0.055
1670356343.87999,-9.262,-0.065,4.739,-0.6496000000000001,-0.38970000000000005,0.36050000000000004,0.012,0.015,-0.049
1670356343.91999,-9.261000000000001,-0.094,4.713,-0.6578,-0.3894,0.36110000000000003,0.004,0.016,-0.045
1670356343.95999,-9.265,-0.005,4.73,-0.6496000000000001,-0.38780000000000003,0.3589,0.014,0.022,-0.039
1670356343.99999,-9.304,-0.002,4.736,-0.6502,-0.3905,0.3645,0.025,0.019,-0.051000000000000004
1670356344.039989,-9.227,-0.11800000000000001,4.678,-0.6494,-0.38930000000000003,0.3618,-0.001,0.024,-0.055
1670356344.079989,-9.199,-0.006,4.694,-0.6487,-0.3889,0.35910000000000003,0.002,0.013000000000000001,-0.039
1670356344.119989,-9.262,-0.02,4.737,-0.6522,-0.39030000000000004,0.3582,0.006,0.013000000000000001,-0.054
1670356344.1599889,-9.269,-0.032,4.761,-0.65,-0.3886,0.35950000000000004,0.011,0.011,-0.062
1670356344.199989,-9.272,-0.035,4.737,-0.6502,-0.391,0.35850000000000004,0.006,0.011,-0.058
1670356344.239989,-9.293000000000001,-0.061,4.697,-0.6507000000000001,-0.39030000000000004,0.3588,-0.002,0.008,-0.042
1670356344.279989,-9.28,0.004,4.773,-0.6501,-0.3917,0.35810000000000003,0.007,0.023,-0.044
1670356344.319989,-9.3,-0.036000000000000004,4.74,-0.6483,-0.3881,0.3609,0.015,0.026000000000000002,-0.054
1670356344.359989,-9.221,-0.036000000000000004,4.67,-0.65,-0.3906,0.3612,0.011,0.019,-0.052000000000000005
1670356344.399989,-9.24,-0.039,4.695,-0.6483,-0.3906,0.3604,0.006,0.016,-0.046
1670356344.439989,-9.253,-0.012,4.716,-0.6507000000000001,-0.38970000000000005,0.3602,0.009000000000000001,0.01,-0.06
1670356344.479989,-9.293000000000001,-0.047,4.74,-0.6502,-0.39230000000000004,0.3588,0.005,0.012,-0.062
1670356344.519989,-9.262,-0.045,4.6930000000000005,-0.6505000000000001,-0.3899,0.35860000000000003,-0.002,0.014,-0.057
1670356344.559989,-9.245000000000001,-0.035,4.708,-0.6495000000000001,-0.38930000000000003,0.3609,-0.005,0.019,-0.053
1670356344.599989,-9.267,-0.038,4.711,-0.6491,-0.3912,0.35850000000000004,0.007,0.022,-0.052000000000000005
1670356344.639989,-9.27,-0.052000000000000005,4.745,-0.6508,-0.39130000000000004,0.3597,0.006,0.018000000000000002,-0.053
1670356344.679989,-9.252,-0.068,4.71,-0.6485000000000001,-0.38920000000000005,0.3608,0.005,0.019,-0.049
1670356344.719989,-9.267,-0.026000000000000002,4.712,-0.6498,-0.3889,0.3599,0.006,0.016,-0.054
1670356344.759989,-9.245000000000001,-0.025,4.715,-0.6501,-0.3902,0.3593,0.01,0.012,-0.051000000000000004
1670356344.799989,-9.25,-0.095,4.692,-0.6498,-0.39130000000000004,0.3589,0.002,0.01,-0.043000000000000003
1670356344.839989,-9.290000000000001,-0.048,4.728,-0.649,-0.3922,0.3602,0.0,0.017,-0.04
1670356344.879989,-9.324,0.019,4.7700000000000005,-0.6502,-0.391,0.3592,0.02,0.018000000000000002,-0.055
1670356344.919989,-9.25,-0.053,4.729,-0.6494,-0.3925,0.36310000000000003,0.016,0.026000000000000002,-0.056
1670356344.959989,-9.261000000000001,-0.083,4.674,-0.6529,-0.3942,0.36460000000000004,0.0,0.024,-0.049
1670356344.999989,-9.258000000000001,-0.004,4.688,-0.6493,-0.39130000000000004,0.35710000000000003,-0.007,0.015,-0.051000000000000004
1670356345.039989,-9.24,0.0,4.737,-0.6526000000000001,-0.39080000000000004,0.35910000000000003,0.008,0.004,-0.061
1670356345.079988,-9.259,-0.066,4.742,-0.6492,-0.3905,0.3608,0.011,0.003,-0.063
1670356345.119988,-9.267,-0.084,4.728,-0.6507000000000001,-0.39390000000000003,0.3593,0.0,0.018000000000000002,-0.054
1670356345.159988,-9.309000000000001,-0.021,4.751,-0.6522,-0.38920000000000005,0.35900000000000004,0.009000000000000001,0.024,-0.047
1670356345.199988,-9.262,0.0,4.7090000000000005,-0.6486000000000001,-0.39080000000000004,0.3642,0.006,0.034,-0.054
1670356345.239988,-9.206,-0.05,4.689,-0.6501,-0.39080000000000004,0.3612,0.014,0.025,-0.054
1670356345.279988,-9.247,-0.046,4.716,-0.6489,-0.3905,0.36000000000000004,0.009000000000000001,0.019,-0.047
1670356345.319988,-9.263,-0.023,4.706,-0.6486000000000001,-0.38970000000000005,0.3609,0.012,0.012,-0.057
1670356345.359988,-9.258000000000001,-0.041,4.7170000000000005,-0.651,-0.3917,0.3598,0.011,0.016,-0.053
1670356345.399988,-9.25,-0.059000000000000004,4.704,-0.6483,-0.3909,0.3609,0.002,0.019,-0.059000000000000004
1670356345.439988,-9.262,-0.03,4.716,-0.6505000000000001,-0.3904,0.36310000000000003,-0.008,0.017,-0.047
1670356345.479988,-9.275,-0.031,4.727,-0.6504,-0.38970000000000005,0.3568,0.0,0.018000000000000002,-0.047
1670356345.519988,-9.242,-0.052000000000000005,4.741,-0.6488,-0.39,0.3599,0.01,0.011,-0.056
1670356345.559988,-9.24,-0.052000000000000005,4.728,-0.6502,-0.3886,0.36150000000000004,0.0,0.015,-0.047
1670356345.599988,-9.25,-0.004,4.756,-0.6506000000000001,-0.3912,0.377,0.002,0.012,-0.04
1670356345.639988,-9.259,-0.028,4.757,-0.6506000000000001,-0.3896,0.37870000000000004,0.005,0.012,-0.047
1670356345.679988,-9.259,-0.028,4.758,-0.6494,-0.3896,0.37870000000000004,0.008,0.017,-0.058
1670356345.719988,-9.242,-0.10300000000000001,4.758,-0.6502,-0.38920000000000005,0.35650000000000004,0.002,0.014,-0.045
1670356345.759988,-9.303,-0.05,4.7250000000000005,-0.6537000000000001,-0.3929,0.3654,0.013000000000000001,0.017,-0.03
1670356345.799988,-9.335,0.075,4.73,-0.6531,-0.3911,0.35550000000000004,0.013000000000000001,0.037,-0.052000000000000005
1670356345.839988,-9.258000000000001,-0.106,4.706,-0.6628000000000001,-0.39280000000000004,0.3708,-0.001,0.029,-0.055
1670356345.879988,-9.214,-0.045,4.654,-0.6502,-0.3911,0.3561,-0.019,0.018000000000000002,-0.043000000000000003
1670356345.919988,-9.223,-0.019,4.696,-0.6517000000000001,-0.3935,0.36200000000000004,-0.004,0.014,-0.06
1670356345.959988,-9.276,-0.006,4.736,-0.6505000000000001,-0.39030000000000004,0.3613,0.013000000000000001,0.008,-0.061
1670356345.999988,-9.284,-0.052000000000000005,4.724,-0.6491,-0.38970000000000005,0.3653,0.001,0.009000000000000001,-0.063
1670356346.039988,-9.273,-0.105,4.731,-0.6494,-0.3905,0.3593,-0.002,0.014,-0.043000000000000003
1670356346.079988,-9.294,-0.017,4.782,-0.648,-0.3902,0.36100000000000004,0.0,0.022,-0.044
1670356346.119987,-9.293000000000001,-0.008,4.713,-0.6493,-0.3899,0.3587,0.006,0.032,-0.046
1670356346.159987,-9.246,-0.019,4.715,-0.6485000000000001,-0.38970000000000005,0.3599,0.014,0.019,-0.043000000000000003
1670356346.199987,-9.239,-0.017,4.724,-0.6465000000000001,-0.3891,0.3583,0.007,0.015,-0.05
1670356346.239987,-9.259,-0.019,4.716,-0.6504,-0.39030000000000004,0.3592,0.009000000000000001,0.016,-0.06
1670356346.279987,-9.26,-0.053,4.7010000000000005,-0.651,-0.3875,0.3614,0.0,0.02,-0.051000000000000004
1670356346.319987,-9.248,-0.05,4.688,-0.6501,-0.38780000000000003,0.36250000000000004,-0.005,0.026000000000000002,-0.05
1670356346.359987,-9.285,-0.035,4.727,-0.6471,-0.3905,0.36100000000000004,-0.007,0.027,-0.051000000000000004
1670356346.399987,-9.282,-0.041,4.6850000000000005,-0.6496000000000001,-0.3889,0.36010000000000003,-0.003,0.029,-0.048
1670356346.439987,-9.258000000000001,-0.028,4.7090000000000005,-0.6457,-0.3905,0.3574,-0.001,0.021,-0.051000000000000004
1670356346.479987,-9.239,-0.053,4.747,-0.6489,-0.3907,0.3619,0.002,0.016,-0.056
1670356346.519987,-9.276,-0.043000000000000003,4.702,-0.649,-0.3911,0.3584,-0.001,0.016,-0.057
1670356346.559987,-9.252,-0.067,4.679,-0.6485000000000001,-0.3889,0.36200000000000004,0.0,0.012,-0.052000000000000005
1670356346.599987,-9.25,-0.064,4.755,-0.6487,-0.39180000000000004,0.3588,0.008,0.011,-0.049
1670356346.639987,-9.269,-0.026000000000000002,4.758,-0.6483,-0.3904,0.3599,0.012,0.016,-0.047
1670356346.679987,-9.323,-0.011,4.729,-0.6479,-0.3916,0.3599,0.016,0.027,-0.051000000000000004
1670356346.719987,-9.236,-0.097,4.72,-0.6488,-0.38980000000000004,0.3624,0.013000000000000001,0.026000000000000002,-0.057
1670356346.759987,-9.213000000000001,-0.02,4.674,-0.6486000000000001,-0.38930000000000003,0.36100000000000004,0.005,0.021,-0.049
1670356346.799987,-9.274000000000001,-0.025,4.697,-0.6469,-0.3896,0.35860000000000003,0.001,0.018000000000000002,-0.051000000000000004
1670356346.839987,-9.294,-0.024,4.731,-0.6483,-0.3894,0.36060000000000003,0.01,0.009000000000000001,-0.054
1670356346.879987,-9.25,-0.061,4.741,-0.6485000000000001,-0.3899,0.3612,0.011,0.011,-0.047
1670356346.919987,-9.321,-0.07200000000000001,4.694,-0.6491,-0.3931,0.3588,-0.006,0.014,-0.043000000000000003
1670356346.959987,-9.274000000000001,0.027,4.749,-0.651,-0.38970000000000005,0.35950000000000004,0.003,0.018000000000000002,-0.047
1670356346.999987,-9.290000000000001,-0.023,4.716,-0.6494,-0.3906,0.35900000000000004,0.017,0.025,-0.054
1670356347.0399868,-9.206,-0.036000000000000004,4.703,-0.6503,-0.3911,0.3588,0.014,0.019,-0.048
1670356347.079987,-9.228,-0.032,4.749,-0.6484,-0.38870000000000005,0.3592,0.006,0.014,-0.049
1670356347.119987,-9.269,-0.003,4.714,-0.6488,-0.3871,0.35860000000000003,0.019,0.006,-0.059000000000000004
1670356347.159986,-9.272,-0.053,4.745,-0.6508,-0.3925,0.35960000000000003,0.012,0.011,-0.052000000000000005
1670356347.199986,-9.257,-0.062,4.703,-0.6476000000000001,-0.3894,0.36010000000000003,0.003,0.012,-0.05
1670356347.239986,-9.271,-0.025,4.728,-0.6474000000000001,-0.39,0.3593,0.003,0.022,-0.047
1670356347.279986,-9.246,-0.033,4.71,-0.6512,-0.3906,0.3589,0.006,0.03,-0.053
1670356347.319986,-9.241,-0.038,4.724,-0.6472,-0.3901,0.36200000000000004,0.005,0.029,-0.051000000000000004
1670356347.359986,-9.266,-0.034,4.745,-0.6485000000000001,-0.3907,0.35810000000000003,0.008,0.022,-0.051000000000000004
1670356347.399986,-9.288,-0.014,4.6770000000000005,-0.6474000000000001,-0.38880000000000003,0.36060000000000003,0.004,0.015,-0.055
1670356347.439986,-9.264,-0.033,4.687,-0.6487,-0.39,0.3588,0.013000000000000001,0.009000000000000001,-0.05
1670356347.479986,-9.26,-0.079,4.691,-0.648,-0.3921,0.3612,0.01,0.011,-0.052000000000000005
1670356347.519986,-9.309000000000001,-0.03,4.73,-0.648,-0.3895,0.35760000000000003,0.011,0.01,-0.048
1670356347.559986,-9.329,0.035,4.775,-0.6503,-0.3906,0.36260000000000003,0.018000000000000002,0.016,-0.044
1670356347.599986,-9.249,-0.076,4.688,-0.6507000000000001,-0.3905,0.36100000000000004,0.013000000000000001,0.03,-0.054
1670356347.639986,-9.244,-0.032,4.676,-0.6532,-0.3919,0.36100000000000004,0.002,0.026000000000000002,-0.053
1670356347.679986,-9.263,-0.013000000000000001,4.755,-0.6451,-0.3907,0.35860000000000003,-0.005,0.021,-0.047
1670356347.719986,-9.273,0.0,4.7540000000000004,-0.6493,-0.39130000000000004,0.35850000000000004,-0.003,0.016,-0.055
1670356347.759986,-9.287,-0.043000000000000003,4.737,-0.6501,-0.3921,0.3609,0.009000000000000001,0.005,-0.058
1670356347.799986,-9.308,-0.09,4.686,-0.6512,-0.39080000000000004,0.3648,-0.002,0.012,-0.056
1670356347.8399858,-9.28,0.05,4.74,-0.6482,-0.3881,0.3477,-0.001,0.009000000000000001,-0.046
1670356347.879986,-9.267,0.002,4.72,-0.6628000000000001,-0.39440000000000003,0.3567,0.008,0.021,-0.051000000000000004
1670356347.919986,-9.267,0.002,4.716,-0.6628000000000001,-0.39440000000000003,0.3532,0.015,0.022,-0.059000000000000004
1670356347.959986,-9.223,-0.031,4.716,-0.6498,-0.39230000000000004,0.3532,0.009000000000000001,0.012,-0.051000000000000004
1670356347.999986,-9.247,-0.044,4.732,-0.6554,-0.39130000000000004,0.3808,0.016,0.009000000000000001,-0.046
1670356348.039986,-9.263,0.043000000000000003,4.7330000000000005,-0.6537000000000001,-0.3916,0.3786,0.027,0.005,-0.07
1670356348.0799859,-9.282,-0.084,4.747,-0.6505000000000001,-0.3924,0.3579,0.008,0.0,-0.066
1670356348.119986,-9.269,-0.08,4.759,-0.6472,-0.3904,0.3617,-0.01,0.008,-0.036000000000000004
1670356348.159986,-9.239,0.019,4.729,-0.6499,-0.3895,0.36050000000000004,0.001,0.011,-0.051000000000000004
1670356348.199986,-9.246,0.007,4.73,-0.649,-0.3924,0.3604,0.021,0.014,-0.058
1670356348.239986,-9.25,-0.042,4.746,-0.6475000000000001,-0.3917,0.3613,0.015,0.016,-0.05
1670356348.279985,-9.253,-0.06,4.7330000000000005,-0.6502,-0.39130000000000004,0.3609,0.003,0.016,-0.043000000000000003
1670356348.319985,-9.252,-0.025,4.798,-0.652,-0.3921,0.3639,0.007,0.014,-0.054
1670356348.359985,-9.235,-0.015,4.711,-0.6494,-0.38920000000000005,0.35850000000000004,0.014,0.012,-0.054
1670356348.399985,-9.261000000000001,-0.04,4.729,-0.6509,-0.39,0.3614,0.01,0.016,-0.052000000000000005
1670356348.439985,-9.26,-0.026000000000000002,4.721,-0.6508,-0.3911,0.3602,0.0,0.017,-0.055
1670356348.479985,-9.191,-0.043000000000000003,4.764,-0.6509,-0.3914,0.3612,-0.007,0.017,-0.053
1670356348.519985,-9.267,-0.01,4.789,-0.6504,-0.3916,0.36250000000000004,0.007,0.01,-0.038
1670356348.559985,-9.307,-0.07100000000000001,4.74,-0.6501,-0.3901,0.3609,-0.002,0.029,-0.064
1670356348.599985,-9.22,0.02,4.7330000000000005,-0.6498,-0.393,0.35910000000000003,-0.005,0.033,-0.059000000000000004
1670356348.6399848,-9.248,-0.083,4.746,-0.6479,-0.38780000000000003,0.3604,-0.013000000000000001,0.015,-0.051000000000000004
1670356348.679985,-9.261000000000001,-0.018000000000000002,4.74,-0.6479,-0.3916,0.3584,-0.002,0.018000000000000002,-0.057
1670356348.719985,-9.233,-0.005,4.755,-0.6506000000000001,-0.3914,0.3604,0.011,0.016,-0.06
1670356348.759985,-9.241,-0.067,4.753,-0.6472,-0.3894,0.364,0.009000000000000001,0.006,-0.067
1670356348.799985,-9.216000000000001,-0.054,4.756,-0.6503,-0.3905,0.3634,0.004,0.013000000000000001,-0.046
1670356348.839985,-9.293000000000001,-0.074,4.758,-0.6485000000000001,-0.3909,0.36010000000000003,0.01,0.019,-0.052000000000000005
1670356348.8799849,-9.238,0.002,4.7700000000000005,-0.6488,-0.38770000000000004,0.3617,0.013000000000000001,0.02,-0.056
1670356348.919985,-9.237,-0.034,4.703,-0.6494,-0.3889,0.3609,0.008,0.021,-0.044
1670356348.959985,-9.224,-0.031,4.739,-0.6516000000000001,-0.3909,0.3614,0.007,0.013000000000000001,-0.047
1670356348.999985,-9.25,-0.028,4.758,-0.6473,-0.3905,0.3618,0.005,0.01,-0.056
1670356349.039985,-9.264,-0.061,4.7860000000000005,-0.6485000000000001,-0.3921,0.36200000000000004,-0.004,0.013000000000000001,-0.054
1670356349.079985,-9.238,-0.07200000000000001,4.799,-0.6516000000000001,-0.38920000000000005,0.36200000000000004,-0.02,0.015,-0.043000000000000003
1670356349.1199849,-9.27,-0.041,4.761,-0.649,-0.3906,0.36200000000000004,-0.011,0.026000000000000002,-0.046
1670356349.159985,-9.24,-0.025,4.759,-0.648,-0.38780000000000003,0.36300000000000004,-0.002,0.027,-0.054
1670356349.199985,-9.268,-0.056,4.751,-0.6495000000000001,-0.3899,0.3627,0.0,0.023,-0.053
1670356349.239985,-9.291,-0.049,4.729,-0.65,-0.3886,0.36150000000000004,0.0,0.029,-0.052000000000000005
1670356349.279985,-9.257,-0.022,4.704,-0.6489,-0.3899,0.36000000000000004,0.003,0.021,-0.051000000000000004
1670356349.319984,-9.253,-0.07200000000000001,4.745,-0.6489,-0.39080000000000004,0.35810000000000003,0.005,0.017,-0.056
1670356349.359984,-9.269,-0.069,4.7250000000000005,-0.6485000000000001,-0.388,0.3574,0.0,0.016,-0.049
1670356349.399984,-9.236,-0.032,4.767,-0.6493,-0.3881,0.36110000000000003,0.003,0.011,-0.052000000000000005
1670356349.4399838,-9.258000000000001,0.048,4.748,-0.6492,-0.392,0.36110000000000003,0.014,0.007,-0.037
1670356349.479984,-9.251,-0.153,4.737,-0.6476000000000001,-0.39130000000000004,0.3592,0.003,0.025,-0.053
1670356349.519984,-9.199,-0.022,4.715,-0.6499,-0.3911,0.36100000000000004,-0.002,0.019,-0.056
1670356349.559984,-9.227,-0.051000000000000004,4.748,-0.6514,-0.3894,0.36110000000000003,-0.002,0.016,-0.038
1670356349.599984,-9.256,-0.031,4.78,-0.6483,-0.388,0.3617,0.0,0.015,-0.054
1670356349.639984,-9.287,-0.056,4.806,-0.6516000000000001,-0.3905,0.36210000000000003,0.012,0.012,-0.054
1670356349.6799839,-9.213000000000001,-0.131,4.749,-0.6498,-0.39,0.3587,-0.004,0.011,-0.062
1670356349.719984,-9.234,0.015,4.728,-0.6493,-0.3907,0.3617,-0.009000000000000001,0.014,-0.042
1670356349.759984,-9.251,-0.079,4.724,-0.6487,-0.38820000000000005,0.35910000000000003,0.0,0.024,-0.049
1670356349.799984,-9.217,-0.019,4.728,-0.6488,-0.39080000000000004,0.36300000000000004,0.006,0.037,-0.052000000000000005
1670356349.839984,-9.245000000000001,-0.054,4.722,-0.6483,-0.3891,0.3608,0.007,0.019,-0.04
1670356349.879984,-9.261000000000001,-0.027,4.757,-0.6482,-0.3911,0.36360000000000003,0.004,0.017,-0.045
1670356349.9199839,-9.259,-0.052000000000000005,4.768,-0.6488,-0.39080000000000004,0.35960000000000003,0.012,0.008,-0.056
1670356349.959984,-9.265,-0.067,4.743,-0.6534,-0.3906,0.3642,0.005,0.014,-0.052000000000000005
1670356349.999984,-9.236,-0.038,4.735,-0.6492,-0.3874,0.3617,-0.004,0.02,-0.05
1670356350.039984,-9.257,-0.07,4.788,-0.6518,-0.3914,0.38380000000000003,-0.001,0.023,-0.054
1670356350.079984,-9.25,-0.044,4.758,-0.6508,-0.3894,0.3687,0.003,0.026000000000000002,-0.049
1670356350.119984,-9.25,-0.056,4.752,-0.6508,-0.3905,0.38280000000000003,0.005,0.028,-0.053
1670356350.1599839,-9.251,-0.056,4.748,-0.6498,-0.3905,0.38280000000000003,-0.003,0.017,-0.054
1670356350.199984,-9.266,-0.047,4.748,-0.6518,-0.39030000000000004,0.3815,-0.001,0.008,-0.054
1670356350.239984,-9.224,-0.059000000000000004,4.702,-0.6499,-0.39080000000000004,0.3292,0.003,0.009000000000000001,-0.054
1670356350.279984,-9.232,-0.065,4.742,-0.647,-0.3896,0.3748,0.003,0.009000000000000001,-0.053
1670356350.319984,-9.237,-0.041,4.768,-0.6476000000000001,-0.38880000000000003,0.37220000000000003,0.01,0.02,-0.041
1670356350.359983,-9.27,-0.043000000000000003,4.715,-0.6496000000000001,-0.3906,0.3618,0.011,0.018000000000000002,-0.052000000000000005
1670356350.399983,-9.257,-0.128,4.722,-0.6477,-0.38830000000000003,0.3635,0.001,0.022,-0.052000000000000005
1670356350.439983,-9.182,-0.047,4.716,-0.6493,-0.38920000000000005,0.3607,-0.003,0.01,-0.046
1670356350.4799829,-9.264,-0.029,4.7250000000000005,-0.6469,-0.38770000000000004,0.36150000000000004,0.007,0.006,-0.06
1670356350.519983,-9.261000000000001,-0.059000000000000004,4.759,-0.6488,-0.3889,0.3624,0.008,0.009000000000000001,-0.065
1670356350.559983,-9.249,-0.092,4.765,-0.6493,-0.38970000000000005,0.3632,0.003,0.014,-0.062
1670356350.599983,-9.296,-0.116,4.711,-0.6474000000000001,-0.3891,0.3603,-0.005,0.021,-0.036000000000000004
1670356350.639983,-9.263,-0.005,4.813,-0.6479,-0.38970000000000005,0.35950000000000004,0.012,0.028,-0.046
1670356350.679983,-9.275,-0.044,4.758,-0.6485000000000001,-0.387,0.3607,0.016,0.035,-0.058
1670356350.7199829,-9.221,-0.058,4.71,-0.6546000000000001,-0.38880000000000003,0.3619,0.013000000000000001,0.023,-0.043000000000000003
1670356350.759983,-9.222,-0.065,4.729,-0.6464000000000001,-0.3901,0.36260000000000003,0.006,0.011,-0.045
1670356350.799983,-9.276,-0.028,4.755,-0.6488,-0.3891,0.36610000000000004,0.008,0.013000000000000001,-0.059000000000000004
1670356350.839983,-9.266,-0.051000000000000004,4.768,-0.6499,-0.39030000000000004,0.3642,0.006,0.008,-0.059000000000000004
1670356350.879983,-9.25,-0.079,4.727,-0.6494,-0.38920000000000005,0.3612,-0.002,0.011,-0.045
1670356350.919983,-9.236,-0.044,4.73,-0.6487,-0.3901,0.3618,0.007,0.012,-0.045
1670356350.9599829,-9.258000000000001,-0.053,4.76,-0.6485000000000001,-0.3874,0.35900000000000004,0.012,0.023,-0.055
1670356350.999983,-9.225,-0.046,4.764,-0.648,-0.3902,0.3599,0.01,0.021,-0.05
1670356351.039983,-9.258000000000001,-0.061,4.707,-0.6486000000000001,-0.39390000000000003,0.3643,0.007,0.015,-0.047
1670356351.079983,-9.221,-0.043000000000000003,4.747,-0.6553,-0.39080000000000004,0.3614,0.007,0.012,-0.046
1670356351.119983,-9.246,-0.044,4.774,-0.6519,-0.39,0.36150000000000004,0.008,0.016,-0.051000000000000004
1670356351.159983,-9.214,-0.053,4.774,-0.6488,-0.388,0.36200000000000004,0.004,0.006,-0.054
1670356351.199983,-9.313,-0.055,4.745,-0.6485000000000001,-0.39030000000000004,0.3648,0.018000000000000002,0.019,-0.034
1670356351.239983,-9.315,-0.07,4.7620000000000005,-0.6503,-0.39330000000000004,0.36160000000000003,0.008,0.033,-0.049
1670356351.279983,-9.207,0.0,4.718,-0.6492,-0.3927,0.3588,-0.003,0.027,-0.051000000000000004
1670356351.319983,-9.244,-0.061,4.708,-0.6501,-0.3881,0.36060000000000003,-0.001,0.015,-0.046
1670356351.359983,-9.264,-0.044,4.719,-0.6497,-0.39,0.3594,0.002,0.009000000000000001,-0.05
1670356351.399982,-9.266,-0.059000000000000004,4.785,-0.6486000000000001,-0.3885,0.3604,0.007,0.011,-0.06
1670356351.439982,-9.228,-0.11900000000000001,4.756,-0.6496000000000001,-0.3889,0.35950000000000004,-0.001,0.011,-0.056
1670356351.479982,-9.232,-0.004,4.773,-0.6486000000000001,-0.3881,0.3597,0.004,0.015,-0.035
1670356351.5199819,-9.264,-0.116,4.749,-0.6505000000000001,-0.3884,0.3617,0.009000000000000001,0.029,-0.054
1670356351.559982,-9.247,-0.001,4.706,-0.6504,-0.3886,0.36060000000000003,0.02,0.025,-0.053
1670356351.599982,-9.227,-0.046,4.742,-0.6488,-0.3895,0.36710000000000004,0.013000000000000001,0.022,-0.05
1670356351.639982,-9.236,-0.023,4.721,-0.6486000000000001,-0.391,0.3603,0.006,0.015,-0.049
1670356351.679982,-9.264,-0.026000000000000002,4.745,-0.6468,-0.3881,0.3629,0.012,0.009000000000000001,-0.053
1670356351.719982,-9.261000000000001,-0.064,4.742,-0.6499,-0.391,0.36210000000000003,0.005,0.01,-0.054
1670356351.7599819,-9.251,-0.024,4.755,-0.6499,-0.38920000000000005,0.36200000000000004,0.0,0.015,-0.049
1670356351.799982,-9.246,-0.113,4.739,-0.6487,-0.38980000000000004,0.3629,-0.019,0.033,-0.035
1670356351.839982,-9.239,-0.007,4.736,-0.6498,-0.3901,0.3608,0.0,0.022,-0.049
1670356351.879982,-9.258000000000001,-0.016,4.731,-0.6483,-0.3891,0.36110000000000003,0.031,0.012,-0.067
1670356351.919982,-9.247,-0.055,4.756,-0.6477,-0.3905,0.364,0.034,0.008,-0.066
1670356351.959982,-9.253,-0.037,4.729,-0.6476000000000001,-0.3895,0.3618,0.011,0.001,-0.045
1670356351.9999819,-9.22,-0.034,4.727,-0.6513,-0.39,0.3617,0.016,0.014,-0.052000000000000005
1670356352.039982,-9.25,-0.02,4.736,-0.6489,-0.3921,0.3637,0.022,0.006,-0.062
1670356352.079982,-9.188,-0.042,4.771,-0.6478,-0.39,0.3647,0.011,0.006,-0.056
1670356352.119982,-9.214,0.042,4.788,-0.653,-0.3925,0.3649,0.003,0.011,-0.037
1670356352.159982,-9.26,-0.096,4.789,-0.6486000000000001,-0.3916,0.36150000000000004,0.011,0.019,-0.055
1670356352.199982,-9.215,-0.006,4.7330000000000005,-0.6513,-0.3906,0.36210000000000003,0.005,0.026000000000000002,-0.063
1670356352.239982,-9.217,-0.069,4.764,-0.6515000000000001,-0.38970000000000005,0.35950000000000004,-0.007,0.023,-0.057
1670356352.279982,-9.235,-0.013000000000000001,4.787,-0.6498,-0.38930000000000003,0.36200000000000004,-0.013000000000000001,0.026000000000000002,-0.05
1670356352.319982,-9.258000000000001,-0.048,4.803,-0.6533,-0.39,0.34950000000000003,0.002,0.014,-0.058
1670356352.359982,-9.258000000000001,-0.105,4.765,-0.6533,-0.39,0.3635,0.003,0.018000000000000002,-0.062
1670356352.399982,-9.196,-0.105,4.765,-0.6469,-0.3925,0.3635,-0.014,0.023,-0.058
1670356352.439981,-9.201,-0.036000000000000004,4.7940000000000005,-0.6489,-0.38830000000000003,0.392,-0.008,0.03,-0.045
1670356352.479981,-9.26,-0.101,4.773,-0.6487,-0.3905,0.3411,0.005,0.031,-0.052000000000000005
1670356352.519981,-9.255,-0.008,4.716,-0.6497,-0.388,0.38180000000000003,0.001,0.026000000000000002,-0.054
1670356352.5599809,-9.222,-0.063,4.73,-0.6502,-0.3905,0.3654,0.0,0.014,-0.047
1670356352.599981,-9.23,-0.064,4.719,-0.6474000000000001,-0.39,0.35850000000000004,0.0,0.008,-0.057
1670356352.639981,-9.267,-0.034,4.724,-0.6498,-0.38970000000000005,0.35950000000000004,0.003,0.013000000000000001,-0.061
1670356352.679981,-9.238,-0.079,4.742,-0.6476000000000001,-0.3895,0.36210000000000003,0.0,0.01,-0.054
1670356352.719981,-9.244,-0.1,4.788,-0.6473,-0.38830000000000003,0.36150000000000004,-0.009000000000000001,0.012,-0.043000000000000003
1670356352.759981,-9.236,-0.064,4.743,-0.6507000000000001,-0.38930000000000003,0.36010000000000003,0.002,0.019,-0.045
1670356352.7999809,-9.24,-0.062,4.751,-0.6524,-0.39080000000000004,0.3628,0.0,0.02,-0.048
1670356352.839981,-9.264,-0.08700000000000001,4.811,-0.649,-0.3899,0.36050000000000004,0.0,0.022,-0.054
1670356352.879981,-9.244,-0.061,4.78,-0.6541,-0.3929,0.3729,0.0,0.02,-0.046
1670356352.919981,-9.233,-0.047,4.756,-0.6477,-0.3896,0.36260000000000003,0.001,0.014,-0.052000000000000005
1670356352.959981,-9.263,-0.076,4.758,-0.6628000000000001,-0.3922,0.3654,0.007,0.019,-0.056
1670356352.999981,-9.266,-0.083,4.764,-0.6499,-0.38880000000000003,0.36510000000000004,-0.001,0.021,-0.05
1670356353.039981,-9.173,-0.061,4.736,-0.6464000000000001,-0.3904,0.36100000000000004,0.001,0.018000000000000002,-0.046
1670356353.079981,-9.251,-0.012,4.758,-0.6458,-0.3902,0.36200000000000004,0.012,0.006,-0.043000000000000003
1670356353.119981,-9.263,-0.14,4.738,-0.6533,-0.38970000000000005,0.36210000000000003,0.012,0.02,-0.059000000000000004
1670356353.159981,-9.214,-0.053,4.727,-0.6479,-0.38920000000000005,0.36060000000000003,-0.001,0.016,-0.06
1670356353.199981,-9.206,-0.08700000000000001,4.745,-0.6474000000000001,-0.389,0.3629,-0.009000000000000001,0.002,-0.052000000000000005
1670356353.239981,-9.263,-0.053,4.756,-0.6471,-0.38920000000000005,0.3629,0.0,0.003,-0.057
1670356353.279981,-9.278,-0.054,4.828,-0.6465000000000001,-0.3911,0.3635,0.016,0.012,-0.06
1670356353.319981,-9.199,-0.14100000000000001,4.742,-0.6488,-0.3875,0.3627,0.002,0.005,-0.06
1670356353.359981,-9.22,-0.059000000000000004,4.789,-0.6494,-0.38980000000000004,0.3598,-0.005,0.02,-0.038
1670356353.399981,-9.256,-0.117,4.7700000000000005,-0.6508,-0.39,0.36460000000000004,0.012,0.022,-0.043000000000000003
1670356353.439981,-9.232,-0.027,4.739,-0.6485000000000001,-0.38880000000000003,0.35960000000000003,0.016,0.023,-0.049
1670356353.399981,-9.217,-0.078,4.781,-0.65,-0.3884,0.3635,0.009000000000000001,0.013000000000000001,-0.046
1670356353.439981,-9.253,-0.081,4.746,-0.6465000000000001,-0.39180000000000004,0.36100000000000004,0.005,0.01,-0.049
1670356353.47998,-9.241,-0.061,4.776,-0.6484,-0.38870000000000005,0.3619,0.007,0.014,-0.06
1670356353.51998,-9.254,-0.093,4.767,-0.6512,-0.3899,0.36100000000000004,0.003,0.013000000000000001,-0.054
1670356353.55998,-9.235,-0.108,4.753,-0.6502,-0.3902,0.35950000000000004,-0.004,0.019,-0.049
1670356353.5999799,-9.235,-0.08,4.767,-0.6485000000000001,-0.3891,0.3603,-0.005,0.026000000000000002,-0.05
1670356353.63998,-9.209,-0.056,4.76,-0.6497,-0.3864,0.3649,-0.001,0.022,-0.056
1670356353.67998,-9.226,-0.09,4.789,-0.6494,-0.3886,0.3632,0.001,0.016,-0.049
1670356353.71998,-9.237,-0.061,4.766,-0.649,-0.3861,0.3609,-0.001,0.014,-0.051000000000000004
1670356353.75998,-9.244,-0.077,4.75,-0.6489,-0.3864,0.36200000000000004,0.004,0.014,-0.052000000000000005
1670356353.79998,-9.23,-0.088,4.814,-0.6524,-0.39030000000000004,0.3644,0.009000000000000001,0.016,-0.052000000000000005
1670356353.83998,-9.215,-0.07100000000000001,4.795,-0.6496000000000001,-0.3886,0.36160000000000003,0.005,0.009000000000000001,-0.054
1670356353.87998,-9.209,-0.074,4.806,-0.6479,-0.38580000000000003,0.3624,0.006,0.016,-0.054
1670356353.91998,-9.287,-0.077,4.784,-0.6504,-0.38830000000000003,0.3603,0.004,0.024,-0.036000000000000004
1670356353.95998,-9.238,-0.152,4.773,-0.6483,-0.38670000000000004,0.36210000000000003,0.001,0.032,-0.056
1670356353.99998,-9.166,-0.052000000000000005,4.7620000000000005,-0.6506000000000001,-0.3904,0.366,-0.006,0.02,-0.053
1670356354.03998,-9.244,-0.077,4.7860000000000005,-0.6554,-0.3905,0.3639,-0.01,0.019,-0.048
1670356354.07998,-9.244,-0.089,4.792,-0.6485000000000001,-0.3874,0.3608,0.0,0.017,-0.054
1670356354.11998,-9.272,-0.099,4.767,-0.6499,-0.386,0.3635,0.014,0.011,-0.059000000000000004
1670356354.15998,-9.23,-0.147,4.785,-0.6502,-0.389,0.36200000000000004,0.002,0.003,-0.048
1670356354.19998,-9.23,-0.012,4.815,-0.6487,-0.38930000000000003,0.3613,0.003,0.007,-0.038
1670356354.23998,-9.27,-0.12,4.7620000000000005,-0.6489,-0.38720000000000004,0.3647,0.016,0.018000000000000002,-0.05
1670356354.27998,-9.181000000000001,-0.044,4.756,-0.6506000000000001,-0.3889,0.3637,0.021,0.021,-0.054
1670356354.31998,-9.202,-0.07,4.795,-0.6508,-0.3895,0.3589,0.01,0.011,-0.038
1670356354.35998,-9.237,-0.037,4.764,-0.6475000000000001,-0.38830000000000003,0.3613,0.006,0.008,-0.043000000000000003
1670356354.39998,-9.248,-0.066,4.759,-0.6506000000000001,-0.3894,0.3623,0.019,0.016,-0.056
1670356354.43998,-9.217,-0.08600000000000001,4.803,-0.6496000000000001,-0.38830000000000003,0.3705,0.017,0.012,-0.058
1670356354.47998,-9.214,-0.052000000000000005,4.795,-0.6479,-0.3864,0.3729,-0.002,0.013000000000000001,-0.05
1670356354.519979,-9.214,-0.063,4.793,-0.6479,-0.3864,0.37110000000000004,-0.003,0.021,-0.052000000000000005
1670356354.559979,-9.231,-0.063,4.793,-0.65,-0.38870000000000005,0.37110000000000004,0.002,0.029,-0.051000000000000004
1670356354.599979,-9.200000000000001,-0.08,4.792,-0.651,-0.3909,0.3567,-0.001,0.027,-0.051000000000000004
1670356354.639979,-9.214,-0.079,4.776,-0.6508,-0.3891,0.3617,0.004,0.023,-0.05
1670356354.679979,-9.217,-0.08,4.784,-0.6496000000000001,-0.3885,0.372,0.005,0.016,-0.049
1670356354.719979,-9.253,-0.069,4.796,-0.6524,-0.3885,0.3537,0.015,0.02,-0.05
1670356354.759979,-9.261000000000001,-0.07100000000000001,4.749,-0.6508,-0.38720000000000004,0.3629,0.013000000000000001,0.018000000000000002,-0.05
1670356354.799979,-9.194,-0.135,4.784,-0.6558,-0.3896,0.3664,0.009000000000000001,0.013000000000000001,-0.047
1670356354.839979,-9.278,-0.07,4.813,-0.6512,-0.3896,0.3629,0.01,0.026000000000000002,-0.04
1670356354.879979,-9.308,-0.005,4.775,-0.6535000000000001,-0.38980000000000004,0.3678,0.007,0.027,-0.056
1670356354.919979,-9.193,-0.08,4.737,-0.6538,-0.3889,0.3628,0.005,0.022,-0.057
1670356354.959979,-9.214,-0.095,4.745,-0.6634,-0.3961,0.36510000000000004,0.002,0.011,-0.047
1670356354.999979,-9.232,-0.04,4.752,-0.6486000000000001,-0.39,0.35960000000000003,0.003,0.014,-0.057
1670356355.039979,-9.251,-0.039,4.8020000000000005,-0.651,-0.38980000000000004,0.36310000000000003,0.008,0.01,-0.061
1670356355.079979,-9.233,-0.083,4.791,-0.6521,-0.3896,0.3607,0.006,0.011,-0.056
1670356355.119979,-9.223,-0.108,4.773,-0.6486000000000001,-0.38780000000000003,0.3592,0.005,0.012,-0.04
1670356355.159979,-9.286,-0.013000000000000001,4.804,-0.6488,-0.391,0.36460000000000004,0.012,0.021,-0.051000000000000004
1670356355.199979,-9.247,-0.056,4.788,-0.6512,-0.39130000000000004,0.3599,0.008,0.026000000000000002,-0.054
1670356355.239979,-9.204,-0.082,4.74,-0.6478,-0.3884,0.3622,0.012,0.02,-0.047
1670356355.279979,-9.235,-0.052000000000000005,4.789,-0.6492,-0.3875,0.35910000000000003,0.005,0.018000000000000002,-0.05
1670356355.319979,-9.244,-0.04,4.7940000000000005,-0.6513,-0.3894,0.36160000000000003,0.013000000000000001,0.015,-0.058
1670356355.359979,-9.242,-0.077,4.779,-0.6499,-0.38770000000000004,0.3603,0.012,0.017,-0.06
1670356355.399979,-9.218,-0.08700000000000001,4.73,-0.6508,-0.3885,0.36250000000000004,-0.001,0.016,-0.044
1670356355.439979,-9.218,-0.07,4.782,-0.6519,-0.3901,0.36060000000000003,0.003,0.02,-0.052000000000000005
1670356355.479979,-9.229000000000001,-0.044,4.743,-0.6482,-0.39,0.3627,0.009000000000000001,0.022,-0.052000000000000005
1670356355.519979,-9.227,-0.062,4.756,-0.6491,-0.3891,0.3635,0.007,0.017,-0.049
1670356355.559978,-9.225,-0.067,4.752,-0.6506000000000001,-0.388,0.36060000000000003,0.0,0.014,-0.05
1670356355.599978,-9.229000000000001,-0.061,4.7250000000000005,-0.6494,-0.38770000000000004,0.3635,0.0,0.008,-0.052000000000000005
1670356355.639978,-9.244,-0.043000000000000003,4.7620000000000005,-0.6468,-0.38870000000000005,0.36210000000000003,0.006,0.016,-0.053
1670356355.679978,-9.244,-0.066,4.7620000000000005,-0.6528,-0.39080000000000004,0.36000000000000004,0.011,0.01,-0.048
1670356355.719978,-9.221,-0.099,4.791,-0.6526000000000001,-0.3889,0.36210000000000003,0.003,0.005,-0.047
1670356355.759978,-9.282,-0.083,4.763,-0.6486000000000001,-0.3889,0.3604,-0.001,0.008,-0.047
1670356355.799978,-9.304,0.029,4.808,-0.653,-0.39,0.3618,0.006,0.021,-0.058
1670356355.839978,-9.235,-0.131,4.779,-0.6508,-0.388,0.3629,0.0,0.013000000000000001,-0.057
1670356355.879978,-9.184000000000001,-0.08,4.7540000000000004,-0.6495000000000001,-0.3859,0.3613,-0.01,0.01,-0.041
1670356355.919978,-9.22,-0.038,4.825,-0.6501,-0.3899,0.364,-0.012,0.01,-0.043000000000000003
1670356355.959978,-9.205,-0.049,4.8,-0.6501,-0.3884,0.3607,0.011,0.008,-0.057
1670356355.999978,-9.245000000000001,-0.108,4.803,-0.6492,-0.3884,0.3637,0.008,0.012,-0.055
1670356356.039978,-9.198,-0.137,4.845,-0.6515000000000001,-0.39130000000000004,0.3637,-0.003,0.014,-0.05
1670356356.079978,-9.269,0.016,4.828,-0.6527000000000001,-0.389,0.3629,0.004,0.013000000000000001,-0.036000000000000004
1670356356.119978,-9.26,-0.082,4.811,-0.6493,-0.3886,0.3614,0.015,0.029,-0.054
1670356356.159978,-9.188,-0.053,4.748,-0.6516000000000001,-0.39080000000000004,0.36510000000000004,0.008,0.03,-0.055
1670356356.199978,-9.203,-0.054,4.772,-0.6477,-0.38430000000000003,0.36110000000000003,0.005,0.015,-0.045
1670356356.239978,-9.244,-0.034,4.807,-0.6498,-0.3896,0.36310000000000003,0.001,0.014,-0.053
1670356356.279978,-9.243,-0.081,4.767,-0.6501,-0.39080000000000004,0.3623,0.003,0.019,-0.061
1670356356.319978,-9.199,-0.101,4.806,-0.6504,-0.38920000000000005,0.36160000000000003,-0.006,0.016,-0.056
1670356356.359978,-9.219,-0.07200000000000001,4.775,-0.6494,-0.3891,0.3617,-0.006,0.014,-0.054
1670356356.399978,-9.22,-0.085,4.797,-0.6477,-0.388,0.3632,-0.009000000000000001,0.023,-0.056
1670356356.439978,-9.231,-0.101,4.827,-0.6504,-0.38780000000000003,0.36250000000000004,-0.005,0.022,-0.055
1670356356.4799778,-9.197000000000001,-0.10200000000000001,4.8100000000000005,-0.6507000000000001,-0.38630000000000003,0.3633,0.0,0.02,-0.054
1670356356.519978,-9.21,-0.091,4.801,-0.6529,-0.38780000000000003,0.3668,0.003,0.02,-0.056
1670356356.559978,-9.244,-0.085,4.8020000000000005,-0.6527000000000001,-0.3881,0.36200000000000004,0.004,0.019,-0.056
1670356356.599977,-9.188,-0.089,4.8180000000000005,-0.6502,-0.38770000000000004,0.3604,0.01,0.021,-0.052000000000000005
1670356356.639977,-9.189,-0.117,4.782,-0.6487,-0.3889,0.3618,0.008,0.015,-0.051000000000000004
1670356356.679977,-9.28,-0.08,4.809,-0.654,-0.38830000000000003,0.36100000000000004,0.005,0.012,-0.051000000000000004
1670356356.719977,-9.281,-0.067,4.797,-0.6538,-0.3881,0.3476,0.009000000000000001,0.016,-0.047
1670356356.759977,-9.281,-0.083,4.7700000000000005,-0.6653,-0.3921,0.38780000000000003,0.006,0.024,-0.054
1670356356.799977,-9.187,-0.083,4.771,-0.6653,-0.3921,0.38780000000000003,-0.003,0.022,-0.053
1670356356.839977,-9.204,-0.096,4.771,-0.6543,-0.38880000000000003,0.3629,-0.001,0.012,-0.043000000000000003
1670356356.879977,-9.242,-0.078,4.8180000000000005,-0.6563,-0.3912,0.382,0.009000000000000001,0.016,-0.053
1670356356.919977,-9.231,-0.079,4.816,-0.6502,-0.3861,0.3562,0.011,0.017,-0.058
1670356356.959977,-9.204,-0.126,4.807,-0.6567000000000001,-0.3884,0.3825,0.007,0.008,-0.053
1670356356.999977,-9.217,-0.076,4.793,-0.6511,-0.38880000000000003,0.36310000000000003,0.017,0.011,-0.045
1670356357.039977,-9.279,-0.08,4.774,-0.6602,-0.3911,0.3694,0.021,0.021,-0.055
1670356357.079977,-9.245000000000001,-0.053,4.7940000000000005,-0.6513,-0.3884,0.36210000000000003,0.021,0.022,-0.054
1670356357.119977,-9.187,-0.08,4.7860000000000005,-0.6518,-0.3881,0.36060000000000003,0.01,0.011,-0.042
1670356357.159977,-9.236,-0.063,4.764,-0.651,-0.3885,0.36310000000000003,0.008,0.007,-0.051000000000000004
1670356357.199977,-9.247,-0.065,4.841,-0.6487,-0.3886,0.36200000000000004,0.011,0.015,-0.053
1670356357.239977,-9.236,-0.098,4.833,-0.6566000000000001,-0.3875,0.36060000000000003,0.009000000000000001,0.015,-0.057
1670356357.2799768,-9.207,-0.08600000000000001,4.813,-0.6502,-0.38880000000000003,0.3612,0.004,0.015,-0.047
1670356357.319977,-9.226,-0.076,4.771,-0.6455000000000001,-0.3866,0.3627,0.004,0.017,-0.052000000000000005
1670356357.359977,-9.224,-0.078,4.797,-0.6514,-0.3885,0.3618,0.004,0.029,-0.055
1670356357.399977,-9.229000000000001,-0.093,4.807,-0.6509,-0.3881,0.3607,0.003,0.022,-0.054
1670356357.439977,-9.209,-0.073,4.7860000000000005,-0.6499,-0.3904,0.3635,0.007,0.018000000000000002,-0.048
1670356357.479977,-9.245000000000001,-0.065,4.779,-0.65,-0.38830000000000003,0.3598,0.012,0.014,-0.053
1670356357.5199769,-9.221,-0.07,4.748,-0.6493,-0.388,0.3643,0.015,0.015,-0.057
1670356357.559977,-9.239,-0.099,4.785,-0.6494,-0.389,0.3603,0.007,0.015,-0.056
1670356357.599977,-9.192,-0.05,4.761,-0.6531,-0.389,0.3614,0.013000000000000001,0.012,-0.044
1670356357.639977,-9.223,-0.019,4.8100000000000005,-0.6519,-0.3894,0.3589,0.017,0.01,-0.042
1670356357.679977,-9.257,-0.149,4.808,-0.6502,-0.38730000000000003,0.36260000000000003,0.011,0.021,-0.056
1670356357.719976,-9.181000000000001,-0.026000000000000002,4.758,-0.6493,-0.39,0.3599,0.001,0.027,-0.058
1670356357.759976,-9.229000000000001,-0.089,4.814,-0.6489,-0.3891,0.3609,-0.008,0.02,-0.049
1670356357.799976,-9.214,-0.065,4.825,-0.6488,-0.38830000000000003,0.36260000000000003,0.006,0.005,-0.054
1670356357.839976,-9.232,-0.074,4.79,-0.6526000000000001,-0.3911,0.36200000000000004,0.01,0.01,-0.059000000000000004
1670356357.879976,-9.211,-0.129,4.815,-0.6513,-0.38920000000000005,0.3614,-0.001,0.011,-0.063
1670356357.919976,-9.149000000000001,-0.04,4.788,-0.6496000000000001,-0.38820000000000005,0.3614,0.01,0.012,-0.04
1670356357.959976,-9.238,-0.147,4.773,-0.6501,-0.38970000000000005,0.3614,0.015,0.019,-0.049
1670356357.999976,-9.215,-0.038,4.789,-0.6502,-0.3884,0.3629,0.014,0.022,-0.053
1670356358.039976,-9.166,-0.081,4.795,-0.6474000000000001,-0.3899,0.3645,0.01,0.014,-0.045
1670356358.0799758,-9.24,-0.054,4.801,-0.6523,-0.3914,0.36310000000000003,0.009000000000000001,0.012,-0.051000000000000004
1670356358.119976,-9.245000000000001,-0.052000000000000005,4.82,-0.652,-0.3899,0.3629,0.015,0.008,-0.062
1670356358.159976,-9.229000000000001,-0.10200000000000001,4.797,-0.6512,-0.38880000000000003,0.36210000000000003,0.012,0.01,-0.054
1670356358.199976,-9.217,-0.092,4.783,-0.65,-0.3865,0.3622,-0.003,0.015,-0.048
1670356358.239976,-9.215,-0.059000000000000004,4.796,-0.648,-0.38720000000000004,0.3624,0.001,0.016,-0.052000000000000005
1670356358.279976,-9.206,-0.07100000000000001,4.817,-0.6504,-0.3896,0.3638,0.013000000000000001,0.013000000000000001,-0.045
1670356358.3199759,-9.205,-0.09,4.78,-0.6503,-0.3905,0.36250000000000004,0.004,0.019,-0.058
1670356358.359976,-9.205,-0.073,4.8500000000000005,-0.6488,-0.3891,0.3634,0.006,0.013000000000000001,-0.049
1670356358.399976,-9.215,-0.037,4.821,-0.6507000000000001,-0.3891,0.3627,0.008,0.013000000000000001,-0.052000000000000005
1670356358.439976,-9.188,-0.089,4.781,-0.6508,-0.3856,0.3634,0.007,0.015,-0.052000000000000005
1670356358.479976,-9.217,-0.109,4.804,-0.6543,-0.3866,0.3652,0.003,0.013000000000000001,-0.053
1670356358.519976,-9.226,-0.059000000000000004,4.792,-0.6493,-0.3885,0.3632,-0.002,0.016,-0.051000000000000004
1670356358.5599759,-9.214,0.053,4.859,-0.6484,-0.38820000000000005,0.36460000000000004,0.013000000000000001,0.014,-0.036000000000000004
1670356358.599976,-9.226,-0.158,4.791,-0.6502,-0.3891,0.3637,0.011,0.023,-0.054
1670356358.639976,-9.169,-0.062,4.7940000000000005,-0.6499,-0.3902,0.3643,0.003,0.022,-0.052000000000000005
1670356358.679976,-9.212,-0.078,4.804,-0.6494,-0.38880000000000003,0.36160000000000003,-0.011,0.017,-0.041
1670356358.719976,-9.229000000000001,-0.038,4.812,-0.6505000000000001,-0.39080000000000004,0.36200000000000004,-0.002,0.017,-0.051000000000000004
1670356358.759975,-9.241,-0.107,4.852,-0.6485000000000001,-0.38830000000000003,0.3629,0.004,0.018000000000000002,-0.058
1670356358.799975,-9.191,-0.158,4.821,-0.6494,-0.3889,0.36200000000000004,0.002,0.027,-0.06
1670356358.839975,-9.193,-0.029,4.813,-0.6485000000000001,-0.38780000000000003,0.3598,-0.007,0.016,-0.039
1670356358.879975,-9.236,-0.108,4.806,-0.6517000000000001,-0.39,0.3652,0.007,0.028,-0.043000000000000003
1670356358.919975,-9.186,-0.06,4.7860000000000005,-0.6535000000000001,-0.39030000000000004,0.37010000000000004,0.012,0.021,-0.054
1670356358.959975,-9.178,-0.057,4.792,-0.6536000000000001,-0.38730000000000003,0.3583,0.008,0.015,-0.048
1670356358.999975,-9.178,-0.054,4.787,-0.6643,-0.3935,0.3572,0.009000000000000001,0.009000000000000001,-0.043000000000000003
1670356359.039975,-9.212,-0.054,4.787,-0.6643,-0.3935,0.3572,0.004,0.009000000000000001,-0.057
1670356359.079975,-9.211,-0.07100000000000001,4.792,-0.6499,-0.3909,0.3718,0.003,0.017,-0.052000000000000005
1670356359.1199749,-9.217,-0.088,4.809,-0.6546000000000001,-0.3899,0.37870000000000004,-0.005,0.016,-0.044
1670356359.159975,-9.211,-0.09,4.803,-0.6516000000000001,-0.38920000000000005,0.34190000000000004,-0.001,0.017,-0.047
1670356359.199975,-9.208,-0.08,4.833,-0.6507000000000001,-0.388,0.3567,-0.001,0.026000000000000002,-0.052000000000000005
1670356359.239975,-9.221,-0.076,4.788,-0.6482,-0.389,0.3629,-0.001,0.024,-0.056
1670356359.279975,-9.204,-0.1,4.849,-0.6483,-0.38880000000000003,0.3647,0.003,0.023,-0.055
1670356359.319975,-9.212,-0.088,4.827,-0.6488,-0.3875,0.3632,0.0,0.02,-0.052000000000000005
1670356359.3599749,-9.215,-0.064,4.809,-0.6511,-0.38920000000000005,0.3649,0.009000000000000001,0.023,-0.051000000000000004
1670356359.399975,-9.212,-0.095,4.807,-0.6538,-0.3874,0.3649,0.007,0.024,-0.053
1670356359.439975,-9.186,-0.106,4.828,-0.6471,-0.38780000000000003,0.365,0.001,0.017,-0.047
1670356359.479975,-9.202,-0.084,4.824,-0.6482,-0.38920000000000005,0.364,-0.001,0.017,-0.05
1670356359.519975,-9.259,-0.023,4.789,-0.6478,-0.38770000000000004,0.36460000000000004,0.012,0.026000000000000002,-0.054
1670356359.559975,-9.212,-0.17200000000000001,4.7700000000000005,-0.6471,-0.3906,0.36150000000000004,0.001,0.023,-0.057
1670356359.5999749,-9.144,-0.048,4.795,-0.6472,-0.38680000000000003,0.3635,-0.005,0.018000000000000002,-0.046
1670356359.639975,-9.212,-0.062,4.788,-0.6497,-0.38630000000000003,0.3627,0.002,0.011,-0.051000000000000004
1670356359.679975,-9.227,-0.065,4.801,-0.6461,-0.3895,0.3632,0.01,0.013000000000000001,-0.061
1670356359.719975,-9.255,-0.129,4.819,-0.6488,-0.38630000000000003,0.3655,0.003,0.014,-0.057
1670356359.759975,-9.18,-0.17400000000000002,4.839,-0.6453,-0.38670000000000004,0.3633,-0.009000000000000001,0.022,-0.049
1670356359.799974,-9.216000000000001,-0.007,4.853,-0.6484,-0.3899,0.3624,0.009000000000000001,0.026000000000000002,-0.044
1670356359.839974,-9.228,-0.135,4.812,-0.6488,-0.387,0.3644,0.014,0.027,-0.052000000000000005
1670356359.879974,-9.205,-0.062,4.759,-0.6527000000000001,-0.387,0.36210000000000003,0.014,0.019,-0.046
1670356359.9199739,-9.185,-0.078,4.795,-0.6503,-0.38620000000000004,0.36260000000000003,0.005,0.015,-0.044
1670356359.959974,-9.242,-0.08,4.831,-0.6475000000000001,-0.3874,0.3635,0.006,0.014,-0.054
1670356359.999974,-9.224,-0.089,4.807,-0.6481,-0.38870000000000005,0.3612,0.009000000000000001,0.017,-0.059000000000000004
1670356360.039974,-9.203,-0.10400000000000001,4.8100000000000005,-0.6468,-0.38880000000000003,0.3634,-0.001,0.01,-0.052000000000000005
1670356360.079974,-9.215,-0.084,4.792,-0.6598,-0.3889,0.3648,0.0,0.018000000000000002,-0.053
1670356360.119974,-9.229000000000001,-0.101,4.8,-0.6502,-0.3879,0.3674,0.009000000000000001,0.02,-0.052000000000000005
1670356360.1599739,-9.221,-0.083,4.788,-0.6506000000000001,-0.38880000000000003,0.36410000000000003,0.007,0.022,-0.05
1670356360.199974,-9.208,-0.094,4.814,-0.6456000000000001,-0.3865,0.36250000000000004,0.008,0.021,-0.045
1670356360.239974,-9.208,-0.079,4.816,-0.6493,-0.3891,0.36360000000000003,0.015,0.013000000000000001,-0.049
1670356360.279974,-9.208,-0.076,4.789,-0.647,-0.38930000000000003,0.36110000000000003,0.014,0.014,-0.05
1670356360.319974,-9.241,-0.077,4.825,-0.6502,-0.3885,0.364,0.017,0.015,-0.05
1670356360.359974,-9.197000000000001,-0.061,4.791,-0.6512,-0.3894,0.3645,0.025,0.026000000000000002,-0.051000000000000004
1670356360.3999739,-9.17,-0.124,4.804,-0.6484,-0.3896,0.36360000000000003,0.014,0.018000000000000002,-0.062
1670356360.439974,-9.267,-0.084,4.795,-0.6457,-0.3875,0.3644,-0.002,0.01,-0.051000000000000004
1670356360.479974,-9.282,-0.007,4.7940000000000005,-0.6489,-0.3917,0.36200000000000004,0.0,0.007,-0.04
1670356360.519974,-9.182,-0.10400000000000001,4.749,-0.6514,-0.3902,0.35960000000000003,0.009000000000000001,0.023,-0.067
1670356360.559974,-9.179,-0.077,4.742,-0.6502,-0.3889,0.3635,0.003,0.017,-0.058
1670356360.599974,-9.214,-0.07200000000000001,4.7780000000000005,-0.6479,-0.38820000000000005,0.3639,0.001,0.015,-0.047
1670356360.6399739,-9.258000000000001,-0.057,4.82,-0.651,-0.3885,0.3633,0.008,0.007,-0.059000000000000004
1670356360.679974,-9.226,-0.089,4.837,-0.6498,-0.3891,0.3614,0.013000000000000001,0.015,-0.058
1670356360.719974,-9.248,-0.122,4.803,-0.6503,-0.38970000000000005,0.36160000000000003,0.007,0.01,-0.06
1670356360.759974,-9.223,0.016,4.845,-0.6513,-0.3889,0.3642,0.001,0.015,-0.045
1670356360.799974,-9.248,-0.08,4.855,-0.648,-0.3865,0.3648,0.006,0.022,-0.046
1670356360.839973,-9.185,-0.067,4.791,-0.647,-0.38680000000000003,0.3639,0.017,0.02,-0.055
1670356360.879973,-9.188,-0.08600000000000001,4.813,-0.6502,-0.38880000000000003,0.3618,0.002,0.01,-0.043000000000000003
1670356360.919973,-9.217,-0.034,4.814,-0.6493,-0.3911,0.3654,0.001,0.01,-0.05
1670356360.9599729,-9.242,-0.056,4.801,-0.6505000000000001,-0.388,0.3627,0.009000000000000001,0.012,-0.06
1670356360.999973,-9.209,-0.112,4.813,-0.6534,-0.3886,0.3643,0.001,0.009000000000000001,-0.054
1670356361.039973,-9.182,-0.091,4.791,-0.6531,-0.3907,0.3637,-0.013000000000000001,0.011,-0.051000000000000004
1670356361.079973,-9.200000000000001,-0.07100000000000001,4.843,-0.6555000000000001,-0.3874,0.3664,-0.008,0.01,-0.06
1670356361.119973,-9.203,-0.107,4.838,-0.6511,-0.388,0.3627,0.0,0.013000000000000001,-0.055
1670356361.159973,-9.178,-0.114,4.827,-0.6559,-0.38880000000000003,0.3677,0.001,0.014,-0.053
1670356361.1999729,-9.181000000000001,-0.093,4.855,-0.6489,-0.3866,0.34190000000000004,0.003,0.01,-0.048
1670356361.239973,-9.181000000000001,-0.10200000000000001,4.844,-0.6489,-0.3909,0.3699,0.005,0.01,-0.048
1670356361.279973,-9.193,-0.10200000000000001,4.836,-0.6514,-0.3909,0.3699,0.014,0.009000000000000001,-0.052000000000000005
1670356361.319973,-9.217,-0.082,4.836,-0.6541,-0.3901,0.365,0.013000000000000001,0.018000000000000002,-0.05
1670356361.359973,-9.207,-0.08600000000000001,4.824,-0.6542,-0.3895,0.3729,0.01,0.021,-0.053
1670356361.399973,-9.215,-0.131,4.852,-0.6501,-0.387,0.3471,0.0,0.015,-0.053
1670356361.4399729,-9.163,-0.083,4.832,-0.6503,-0.3895,0.3733,-0.005,0.018000000000000002,-0.043000000000000003
1670356361.479973,-9.213000000000001,0.017,4.822,-0.6486000000000001,-0.38770000000000004,0.3657,0.01,0.029,-0.055
1670356361.519973,-9.194,-0.159,4.793,-0.6494,-0.38780000000000003,0.3623,0.009000000000000001,0.016,-0.057
1670356361.559973,-9.169,-0.08600000000000001,4.769,-0.6494,-0.38830000000000003,0.3653,-0.005,0.016,-0.044
1670356361.599973,-9.205,-0.092,4.819,-0.6495000000000001,-0.38880000000000003,0.3653,-0.012,0.021,-0.049
1670356361.639973,-9.192,-0.056,4.868,-0.653,-0.38770000000000004,0.3622,0.01,0.014,-0.057
1670356361.679973,-9.217,-0.099,4.815,-0.6506000000000001,-0.3902,0.36310000000000003,0.012,0.012,-0.055
1670356361.719973,-9.173,-0.168,4.8420000000000005,-0.6496000000000001,-0.38670000000000004,0.3624,0.0,0.022,-0.05
1670356361.759973,-9.185,-0.03,4.843,-0.6501,-0.3864,0.3634,0.002,0.021,-0.046
1670356361.799973,-9.229000000000001,-0.14400000000000002,4.823,-0.6504,-0.3885,0.3649,0.013000000000000001,0.03,-0.049
1670356361.839973,-9.188,-0.07200000000000001,4.8180000000000005,-0.6521,-0.3891,0.3629,0.013000000000000001,0.023,-0.047
1670356361.879972,-9.182,-0.084,4.813,-0.6494,-0.3866,0.3653,0.007,0.022,-0.043000000000000003
1670356361.919972,-9.203,-0.094,4.843,-0.6518,-0.3884,0.36460000000000004,0.01,0.018000000000000002,-0.055
1670356361.959972,-9.211,-0.08600000000000001,4.824,-0.6481,-0.38880000000000003,0.3639,0.008,0.017,-0.055
1670356361.9999719,-9.209,-0.107,4.822,-0.6484,-0.3905,0.3618,-0.001,0.013000000000000001,-0.049
1670356362.039972,-9.193,-0.099,4.837,-0.651,-0.3859,0.36300000000000004,-0.009000000000000001,0.016,-0.04
1670356362.079972,-9.22,-0.076,4.846,-0.6504,-0.3859,0.3635,0.0,0.021,-0.054
1670356362.119972,-9.192,-0.059000000000000004,4.84,-0.651,-0.38780000000000003,0.3613,0.006,0.02,-0.054
1670356362.159972,-9.19,-0.098,4.803,-0.6537000000000001,-0.38830000000000003,0.3682,0.003,0.013000000000000001,-0.05
1670356362.199972,-9.212,-0.08600000000000001,4.889,-0.6518,-0.3906,0.364,0.004,0.013000000000000001,-0.052000000000000005
1670356362.2399719,-9.181000000000001,-0.101,4.825,-0.6491,-0.3869,0.3638,0.003,0.012,-0.054
1670356362.279972,-9.224,-0.08700000000000001,4.864,-0.6515000000000001,-0.38730000000000003,0.36510000000000004,0.007,0.017,-0.052000000000000005
1670356362.319972,-9.209,-0.097,4.8500000000000005,-0.6525000000000001,-0.38930000000000003,0.3647,0.005,0.018000000000000002,-0.052000000000000005
1670356362.359972,-9.137,-0.111,4.827,-0.6504,-0.388,0.3647,0.001,0.011,-0.045
1670356362.399972,-9.251,-0.11800000000000001,4.859,-0.6488,-0.38720000000000004,0.3645,-0.003,0.019,-0.039
1670356362.439972,-9.26,-0.079,4.873,-0.6523,-0.38820000000000005,0.3659,0.005,0.03,-0.049
1670356362.479972,-9.168000000000001,-0.10300000000000001,4.815,-0.6513,-0.3855,0.3632,-0.011,0.025,-0.049
1670356362.519972,-9.173,-0.112,4.799,-0.652,-0.38770000000000004,0.3653,-0.012,0.016,-0.047
1670356362.559972,-9.209,-0.047,4.8420000000000005,-0.653,-0.387,0.3635,0.0,0.009000000000000001,-0.055
1670356362.599972,-9.191,-0.094,4.8950000000000005,-0.6523,-0.3861,0.364,0.009000000000000001,0.013000000000000001,-0.064
1670356362.639972,-9.188,-0.147,4.87,-0.6504,-0.3866,0.36260000000000003,-0.003,0.019,-0.053
1670356362.679972,-9.168000000000001,-0.109,4.854,-0.6481,-0.388,0.3668,-0.014,0.023,-0.047
1670356362.719972,-9.249,-0.08600000000000001,4.836,-0.6513,-0.3849,0.3639,0.007,0.026000000000000002,-0.051000000000000004
1670356362.759972,-9.205,-0.073,4.886,-0.6492,-0.3859,0.365,0.012,0.024,-0.056
1670356362.799972,-9.135,-0.108,4.825,-0.6521,-0.38680000000000003,0.36260000000000003,0.009000000000000001,0.016,-0.049
1670356362.839972,-9.196,-0.077,4.819,-0.6505000000000001,-0.3866,0.3648,0.007,0.008,-0.045
1670356362.879972,-9.229000000000001,-0.074,4.883,-0.6499,-0.3864,0.3629,0.008,0.013000000000000001,-0.061
1670356362.919971,-9.198,-0.12,4.855,-0.6524,-0.3894,0.36310000000000003,0.005,0.009000000000000001,-0.064
1670356362.959971,-9.172,-0.124,4.865,-0.6499,-0.387,0.36460000000000004,-0.004,0.015,-0.051000000000000004
1670356362.999971,-9.224,-0.099,4.856,-0.6527000000000001,-0.38780000000000003,0.365,-0.001,0.018000000000000002,-0.048
1670356363.0399709,-9.19,-0.117,4.851,-0.6529,-0.3861,0.3617,0.011,0.026000000000000002,-0.056
1670356363.079971,-9.181000000000001,-0.129,4.886,-0.6496000000000001,-0.3854,0.3637,0.005,0.025,-0.047
1670356363.119971,-9.173,-0.092,4.841,-0.6525000000000001,-0.38830000000000003,0.3647,0.01,0.016,-0.047
1670356363.159971,-9.200000000000001,-0.082,4.849,-0.6504,-0.3866,0.3639,0.013000000000000001,0.013000000000000001,-0.051000000000000004
1670356363.199971,-9.16,-0.1,4.862,-0.6529,-0.3896,0.3664,0.02,0.017,-0.052000000000000005
1670356363.239971,-9.172,-0.121,4.861,-0.654,-0.38920000000000005,0.3657,0.018000000000000002,0.012,-0.055
1670356363.279971,-9.144,-0.059000000000000004,4.86,-0.654,-0.3886,0.3649,0.013000000000000001,0.007,-0.05
1670356363.319971,-9.23,-0.079,4.866,-0.6517000000000001,-0.38770000000000004,0.36460000000000004,0.013000000000000001,0.027,-0.044
1670356363.359971,-9.183,-0.165,4.815,-0.6505000000000001,-0.38970000000000005,0.364,0.01,0.032,-0.056
1670356363.399971,-9.121,-0.036000000000000004,4.828,-0.651,-0.388,0.3653,0.0,0.028,-0.05
1670356363.439971,-9.171,-0.073,4.8180000000000005,-0.6505000000000001,-0.3866,0.3552,-0.002,0.014,-0.047
1670356363.479971,-9.181000000000001,-0.099,4.885,-0.6505000000000001,-0.3899,0.3481,0.003,0.009000000000000001,-0.058
1670356363.519971,-9.181000000000001,-0.099,4.901,-0.6532,-0.3899,0.365,0.01,0.007,-0.063
1670356363.559971,-9.189,-0.11900000000000001,4.901,-0.654,-0.3879,0.365,0.0,0.016,-0.063
1670356363.599971,-9.205,-0.168,4.856,-0.6523,-0.3875,0.36960000000000004,0.001,0.01,-0.041
1670356363.639971,-9.172,-0.02,4.915,-0.6545000000000001,-0.38780000000000003,0.3654,0.012,0.029,-0.047
1670356363.679971,-9.196,-0.134,4.846,-0.6515000000000001,-0.3851,0.35600000000000004,0.018000000000000002,0.024,-0.056
1670356363.719971,-9.179,-0.08600000000000001,4.8180000000000005,-0.6551,-0.388,0.3624,0.016,0.018000000000000002,-0.041
1670356363.759971,-9.159,-0.074,4.859,-0.6505000000000001,-0.3855,0.3634,0.006,0.018000000000000002,-0.043000000000000003
1670356363.799971,-9.202,-0.059000000000000004,4.859,-0.651,-0.38920000000000005,0.3657,0.014,0.012,-0.059000000000000004
1670356363.839971,-9.213000000000001,-0.08,4.8500000000000005,-0.6529,-0.38830000000000003,0.36060000000000003,0.009000000000000001,0.02,-0.062
1670356363.879971,-9.174,-0.11,4.874,-0.6502,-0.3881,0.3623,-0.003,0.01,-0.052000000000000005
1670356363.919971,-9.169,-0.084,4.852,-0.6638000000000001,-0.3929,0.3749,-0.001,0.016,-0.051000000000000004
1670356363.95997,-9.206,-0.07,4.836,-0.6545000000000001,-0.3906,0.36210000000000003,0.005,0.02,-0.052000000000000005
1670356363.99997,-9.189,-0.092,4.867,-0.6576000000000001,-0.389,0.3648,0.002,0.021,-0.055
1670356364.03997,-9.184000000000001,-0.108,4.921,-0.6525000000000001,-0.3894,0.3654,0.001,0.014,-0.045
1670356364.07997,-9.172,-0.10300000000000001,4.874,-0.6544,-0.3886,0.3753,0.005,0.01,-0.043000000000000003
1670356364.11997,-9.217,-0.064,4.864,-0.654,-0.38830000000000003,0.3642,0.011,0.02,-0.049
1670356364.15997,-9.183,-0.083,4.866,-0.6651,-0.3926,0.3695,0.01,0.021,-0.052000000000000005
1670356364.19997,-9.191,-0.136,4.856,-0.6549,-0.3879,0.36310000000000003,-0.005,0.036000000000000004,-0.045
1670356364.23997,-9.175,-0.111,4.867,-0.6549,-0.38880000000000003,0.3637,0.0,0.023,-0.035
1670356364.27997,-9.212,0.064,4.861,-0.6541,-0.3875,0.3612,0.043000000000000003,0.02,-0.062
1670356364.31997,-9.176,-0.145,4.8340000000000005,-0.6536000000000001,-0.3875,0.3645,0.043000000000000003,0.02,-0.081
1670356364.35997,-9.178,-0.134,4.821,-0.651,-0.38820000000000005,0.3659,0.004,0.006,-0.046
1670356364.39997,-9.194,-0.079,4.828,-0.6526000000000001,-0.38830000000000003,0.36250000000000004,-0.006,0.008,-0.034
1670356364.43997,-9.202,-0.025,4.867,-0.6511,-0.3886,0.3642,0.021,-0.005,-0.069
1670356364.47997,-9.204,-0.07100000000000001,4.902,-0.6524,-0.3885,0.36410000000000003,0.016,0.002,-0.067
1670356364.51997,-9.182,-0.166,4.898,-0.6496000000000001,-0.38970000000000005,0.3628,-0.005,0.007,-0.05
1670356364.55997,-9.179,-0.003,4.894,-0.6548,-0.3894,0.36410000000000003,-0.002,0.012,-0.043000000000000003
1670356364.59997,-9.196,-0.124,4.865,-0.6536000000000001,-0.38930000000000003,0.3639,0.007,0.024,-0.05
1670356364.63997,-9.16,-0.08,4.851,-0.6522,-0.3866,0.36200000000000004,0.007,0.023,-0.063
1670356364.67997,-9.162,-0.079,4.886,-0.6548,-0.3869,0.36310000000000003,-0.013000000000000001,0.023,-0.047
1670356364.71997,-9.181000000000001,-0.078,4.913,-0.6512,-0.3904,0.3634,-0.008,0.022,-0.057
1670356364.75997,-9.206,-0.078,4.889,-0.6524,-0.38580000000000003,0.3652,0.003,0.018000000000000002,-0.065
1670356364.79997,-9.188,-0.14100000000000001,4.859,-0.6532,-0.38720000000000004,0.36460000000000004,-0.004,0.021,-0.065
1670356364.83997,-9.192,-0.101,4.8260000000000005,-0.6529,-0.38920000000000005,0.3633,-0.018000000000000002,0.024,-0.05
1670356364.87997,-9.194,-0.10200000000000001,4.875,-0.6503,-0.3881,0.3634,-0.011,0.023,-0.059000000000000004
1670356364.91997,-9.182,-0.113,4.8420000000000005,-0.6534,-0.38780000000000003,0.3629,0.0,0.018000000000000002,-0.063
1670356364.95997,-9.184000000000001,-0.14300000000000002,4.882,-0.6546000000000001,-0.3895,0.3635,0.002,0.012,-0.05
1670356364.999969,-9.185,-0.137,4.876,-0.6526000000000001,-0.38520000000000004,0.365,0.003,0.014,-0.046
1670356365.039969,-9.175,-0.099,4.846,-0.6517000000000001,-0.38880000000000003,0.36060000000000003,0.007,0.014,-0.053
1670356365.079969,-9.18,-0.105,4.8950000000000005,-0.6525000000000001,-0.38780000000000003,0.3624,0.008,0.015,-0.056
1670356365.119969,-9.186,-0.152,4.9030000000000005,-0.6506000000000001,-0.38770000000000004,0.3647,0.014,0.022,-0.045
1670356365.159969,-9.193,-0.116,4.915,-0.6529,-0.38520000000000004,0.36310000000000003,0.003,0.013000000000000001,-0.05
1670356365.199969,-9.245000000000001,0.013000000000000001,4.888,-0.6548,-0.3859,0.3679,0.018000000000000002,0.012,-0.035
1670356365.239969,-9.181000000000001,-0.192,4.8180000000000005,-0.656,-0.3895,0.36760000000000004,0.01,0.031,-0.054
1670356365.279969,-9.141,-0.114,4.806,-0.6541,-0.3869,0.3644,-0.006,0.028,-0.054
1670356365.319969,-9.184000000000001,-0.092,4.84,-0.6544,-0.389,0.3623,-0.01,0.021,-0.041
1670356365.359969,-9.175,-0.08700000000000001,4.8580000000000005,-0.6531,-0.38670000000000004,0.36100000000000004,-0.001,0.018000000000000002,-0.052000000000000005
1670356365.399969,-9.197000000000001,-0.13,4.889,-0.6526000000000001,-0.38780000000000003,0.36310000000000003,0.011,0.002,-0.06
1670356365.439969,-9.174,-0.193,4.8790000000000004,-0.6532,-0.3886,0.3617,0.001,0.008,-0.063
1670356365.479969,-9.211,-0.022,4.894,-0.6549,-0.38670000000000004,0.3648,0.0,0.005,-0.042
1670356365.519969,-9.192,-0.114,4.847,-0.6519,-0.38670000000000004,0.3659,0.012,0.021,-0.048
1670356365.559969,-9.165000000000001,-0.117,4.852,-0.651,-0.3889,0.3634,0.018000000000000002,0.025,-0.054
1670356365.599969,-9.142,-0.097,4.88,-0.6518,-0.38670000000000004,0.36560000000000004,0.008,0.016,-0.038
1670356365.639969,-9.172,-0.077,4.8500000000000005,-0.6526000000000001,-0.38820000000000005,0.36410000000000003,0.01,0.015,-0.041
1670356365.679969,-9.215,-0.12,4.865,-0.6541,-0.38720000000000004,0.35810000000000003,0.011,0.009000000000000001,-0.053
1670356365.719969,-9.215,-0.135,4.857,-0.6541,-0.38830000000000003,0.3714,0.0,0.012,-0.055
1670356365.759969,-9.184000000000001,-0.135,4.853,-0.654,-0.38830000000000003,0.3714,-0.008,0.012,-0.05
1670356365.799969,-9.172,-0.1,4.853,-0.6539,-0.38820000000000005,0.365,-0.008,0.017,-0.05
1670356365.839969,-9.185,-0.111,4.836,-0.6538,-0.3881,0.3538,-0.001,0.022,-0.05
1670356365.879969,-9.159,-0.117,4.875,-0.6557000000000001,-0.38820000000000005,0.3662,0.002,0.015,-0.048
1670356365.9199688,-9.166,-0.137,4.864,-0.6575000000000001,-0.3895,0.3678,0.0,0.013000000000000001,-0.053
1670356365.959969,-9.182,-0.099,4.874,-0.653,-0.38720000000000004,0.3624,0.007,0.015,-0.047
1670356365.999969,-9.154,-0.108,4.882,-0.6515000000000001,-0.38530000000000003,0.36060000000000003,0.003,0.007,-0.052000000000000005
1670356366.039968,-9.124,-0.117,4.893,-0.6529,-0.3874,0.36460000000000004,0.007,0.005,-0.048
1670356366.079968,-9.226,-0.11,4.909,-0.6548,-0.38830000000000003,0.37010000000000004,0.01,0.019,-0.039
1670356366.119968,-9.219,-0.1,4.892,-0.6555000000000001,-0.3881,0.3628,0.007,0.025,-0.052000000000000005
1670356366.159968,-9.132,-0.122,4.882,-0.6619,-0.3936,0.3765,-0.002,0.025,-0.042
1670356366.199968,-9.114,-0.096,4.836,-0.6534,-0.387,0.3645,-0.006,0.018000000000000002,-0.047
1670356366.239968,-9.205,-0.096,4.852,-0.6615,-0.3899,0.3648,0.005,0.015,-0.056
1670356366.279968,-9.167,-0.11,4.915,-0.6526000000000001,-0.3869,0.3664,0.007,0.015,-0.054
1670356366.319968,-9.109,-0.162,4.884,-0.6507000000000001,-0.3881,0.3633,-0.007,0.003,-0.056
1670356366.359968,-9.129,-0.062,4.915,-0.6572,-0.3889,0.36460000000000004,0.003,0.004,-0.048
1670356366.399968,-9.211,-0.14,4.8580000000000005,-0.6552,-0.388,0.36050000000000004,0.019,0.026000000000000002,-0.057
1670356366.439968,-9.161,-0.076,4.873,-0.6523,-0.3864,0.3628,0.015,0.022,-0.051000000000000004
1670356366.479968,-9.125,-0.126,4.872,-0.6537000000000001,-0.3871,0.3639,0.0,0.012,-0.041
1670356366.519968,-9.162,-0.093,4.888,-0.6551,-0.3881,0.36360000000000003,0.011,0.01,-0.052000000000000005
1670356366.559968,-9.189,-0.089,4.901,-0.654,-0.3876,0.3639,0.009000000000000001,0.012,-0.058
1670356366.599968,-9.194,-0.14100000000000001,4.885,-0.6549,-0.3905,0.3654,-0.003,0.011,-0.05
1670356366.639968,-9.159,-0.11,4.875,-0.6552,-0.3886,0.3642,-0.003,0.017,-0.045
1670356366.679968,-9.177,-0.115,4.9,-0.6538,-0.38830000000000003,0.3644,-0.003,0.025,-0.047
1670356366.719968,-9.168000000000001,-0.095,4.9030000000000005,-0.6516000000000001,-0.3864,0.36560000000000004,0.006,0.024,-0.05
1670356366.759968,-9.158,-0.106,4.872,-0.6547000000000001,-0.38820000000000005,0.36150000000000004,0.01,0.025,-0.05
1670356366.799968,-9.157,-0.10400000000000001,4.897,-0.654,-0.3875,0.367,0.011,0.016,-0.051000000000000004
1670356366.839968,-9.148,-0.084,4.865,-0.6544,-0.388,0.36200000000000004,0.008,0.008,-0.056
1670356366.879968,-9.14,-0.108,4.857,-0.6536000000000001,-0.386,0.3647,0.005,0.005,-0.048
1670356366.919968,-9.222,-0.113,4.877,-0.6517000000000001,-0.38720000000000004,0.3637,0.001,0.021,-0.04
1670356366.9599679,-9.254,-0.10200000000000001,4.896,-0.6527000000000001,-0.3836,0.3643,0.006,0.031,-0.06
1670356366.999968,-9.134,-0.066,4.853,-0.6577000000000001,-0.3875,0.3654,0.005,0.027,-0.054
1670356367.039968,-9.151,-0.113,4.836,-0.6519,-0.3889,0.3664,0.001,0.012,-0.05
1670356367.079967,-9.16,-0.101,4.892,-0.652,-0.388,0.3622,0.002,0.017,-0.061
1670356367.119967,-9.181000000000001,-0.109,4.888,-0.6542,-0.3854,0.36560000000000004,0.005,0.011,-0.059000000000000004
1670356367.159967,-9.15,-0.178,4.9,-0.6535000000000001,-0.38680000000000003,0.3653,-0.002,0.012,-0.06
1670356367.199967,-9.119,-0.079,4.878,-0.6575000000000001,-0.3905,0.3624,0.005,0.012,-0.044
1670356367.239967,-9.192,-0.153,4.883,-0.6596000000000001,-0.3876,0.3648,0.012,0.028,-0.05
1670356367.279967,-9.173,-0.082,4.886,-0.6536000000000001,-0.3869,0.36260000000000003,0.019,0.029,-0.062
1670356367.319967,-9.146,-0.10300000000000001,4.843,-0.6523,-0.38420000000000004,0.3638,0.015,0.024,-0.046
1670356367.359967,-9.169,-0.074,4.873,-0.6522,-0.39,0.3627,0.012,0.014,-0.049
1670356367.399967,-9.194,-0.08,4.8790000000000004,-0.655,-0.388,0.3665,0.011,0.011,-0.06
1670356367.439967,-9.176,-0.128,4.849,-0.6528,-0.3876,0.3652,0.005,0.017,-0.056
1670356367.479967,-9.154,-0.126,4.863,-0.6547000000000001,-0.38720000000000004,0.3629,-0.005,0.013000000000000001,-0.05
1670356367.519967,-9.169,-0.099,4.885,-0.6538,-0.38880000000000003,0.3629,-0.001,0.016,-0.053
1670356367.559967,-9.173,-0.098,4.883,-0.6538,-0.387,0.365,0.01,0.025,-0.059000000000000004
1670356367.599967,-9.188,-0.122,4.931,-0.6555000000000001,-0.3875,0.364,0.005,0.019,-0.05
1670356367.639967,-9.155,-0.113,4.886,-0.6543,-0.3895,0.3643,0.006,0.017,-0.053
1670356367.679967,-9.193,-0.096,4.899,-0.6543,-0.38630000000000003,0.364,0.007,0.015,-0.051000000000000004
1670356367.719967,-9.153,-0.093,4.868,-0.6588,-0.3907,0.3665,0.011,0.013000000000000001,-0.06
1670356367.7599669,-9.124,-0.164,4.854,-0.6525000000000001,-0.38770000000000004,0.3645,0.0,0.021,-0.059000000000000004
1670356367.799967,-9.221,-0.136,4.924,-0.6546000000000001,-0.3866,0.3635,0.003,0.011,-0.054
1670356367.839967,-9.242,-0.028,4.929,-0.6542,-0.3871,0.3635,0.015,0.007,-0.044
1670356367.879967,-9.162,-0.14100000000000001,4.866,-0.6557000000000001,-0.3886,0.36150000000000004,0.01,0.021,-0.058
1670356367.919967,-9.149000000000001,-0.155,4.852,-0.6551,-0.38970000000000005,0.37470000000000003,0.0,0.019,-0.059000000000000004
1670356367.959967,-9.141,-0.093,4.891,-0.6546000000000001,-0.388,0.3648,-0.008,0.011,-0.044
1670356367.9999669,-9.141,-0.093,4.91,-0.6546000000000001,-0.388,0.35760000000000003,0.005,0.01,-0.057
1670356368.039967,-9.168000000000001,-0.064,4.91,-0.6564,-0.38570000000000004,0.39180000000000004,0.017,0.011,-0.062
1670356368.079967,-9.199,-0.139,4.893,-0.6696000000000001,-0.39480000000000004,0.39180000000000004,0.0,0.007,-0.057
1670356368.119967,-9.164,-0.154,4.882,-0.6558,-0.3881,0.364,0.001,0.01,-0.047
1670356368.159967,-9.22,-0.074,4.904,-0.6597000000000001,-0.388,0.3654,0.013000000000000001,0.021,-0.05
1670356368.199966,-9.183,-0.095,4.898,-0.6544,-0.38770000000000004,0.368,0.015,0.021,-0.058
1670356368.239966,-9.135,-0.115,4.886,-0.6655,-0.3909,0.374,0.005,0.014,-0.045
1670356368.279966,-9.138,-0.11,4.885,-0.6542,-0.38780000000000003,0.3668,0.006,0.01,-0.046
1670356368.319966,-9.192,-0.08700000000000001,4.923,-0.6533,-0.3894,0.3668,0.01,0.009000000000000001,-0.061
1670356368.359966,-9.178,-0.11900000000000001,4.877,-0.6549,-0.38520000000000004,0.36610000000000004,0.007,0.011,-0.062
1670356368.399966,-9.158,-0.14100000000000001,4.902,-0.6557000000000001,-0.388,0.3637,-0.004,0.01,-0.052000000000000005
1670356368.439966,-9.156,-0.128,4.888,-0.6526000000000001,-0.387,0.3659,-0.003,0.009000000000000001,-0.055
1670356368.479966,-9.158,-0.121,4.909,-0.6553,-0.3851,0.36460000000000004,0.007,0.005,-0.057
1670356368.519966,-9.162,-0.134,4.905,-0.6536000000000001,-0.3871,0.3648,0.003,0.01,-0.051000000000000004
1670356368.5599658,-9.147,-0.147,4.929,-0.655,-0.3866,0.3628,0.002,0.011,-0.051000000000000004
1670356368.599966,-9.147,-0.134,4.9590000000000005,-0.6541,-0.38670000000000004,0.3649,0.002,0.013000000000000001,-0.044
1670356368.639966,-9.169,-0.117,4.913,-0.6553,-0.38930000000000003,0.3638,0.007,0.024,-0.046
1670356368.679966,-9.152000000000001,-0.105,4.898,-0.6538,-0.3875,0.36610000000000004,0.008,0.031,-0.045
1670356368.719966,-9.139,-0.11900000000000001,4.918,-0.6551,-0.3869,0.3649,0.005,0.027,-0.048
1670356368.759966,-9.177,-0.14300000000000002,4.873,-0.6545000000000001,-0.38880000000000003,0.36260000000000003,-0.004,0.03,-0.044
1670356368.7999659,-9.121,-0.113,4.918,-0.6519,-0.38670000000000004,0.36310000000000003,-0.016,0.027,-0.047
1670356368.839966,-9.166,-0.04,4.8420000000000005,-0.6556000000000001,-0.3865,0.3635,0.005,0.024,-0.043000000000000003
1670356368.879966,-9.185,-0.22,4.861,-0.6566000000000001,-0.38420000000000004,0.3618,-0.002,0.034,-0.054
1670356368.919966,-9.143,-0.093,4.853,-0.6557000000000001,-0.39,0.3619,-0.004,0.022,-0.05
1670356368.959966,-9.164,-0.149,4.867,-0.6519,-0.38680000000000003,0.3639,-0.008,0.011,-0.046
1670356368.999966,-9.175,-0.129,4.896,-0.6556000000000001,-0.386,0.3618,0.004,0.007,-0.056
1670356369.0399659,-9.203,-0.13,4.908,-0.6538,-0.38720000000000004,0.36510000000000004,0.009000000000000001,0.011,-0.056
1670356369.079966,-9.135,-0.212,4.918,-0.6523,-0.387,0.3655,-0.005,0.008,-0.054
1670356369.119966,-9.137,-0.089,4.897,-0.6531,-0.3864,0.3645,0.003,0.01,-0.039
1670356369.159966,-9.161,-0.196,4.872,-0.6568,-0.38670000000000004,0.36460000000000004,0.011,0.027,-0.044
1670356369.199966,-9.159,-0.091,4.882,-0.6542,-0.38570000000000004,0.36360000000000003,0.011,0.027,-0.05
1670356369.239965,-9.147,-0.107,4.883,-0.6537000000000001,-0.388,0.3703,0.005,0.018000000000000002,-0.045
1670356369.279965,-9.151,-0.126,4.924,-0.6558,-0.3899,0.3677,0.008,0.022,-0.043000000000000003
1670356369.319965,-9.187,-0.11,4.846,-0.6537000000000001,-0.38630000000000003,0.36310000000000003,0.005,0.017,-0.056
1670356369.3599648,-9.157,-0.128,4.909,-0.6534,-0.38630000000000003,0.3657,0.002,0.013000000000000001,-0.056
1670356369.399965,-9.173,-0.152,4.861,-0.6495000000000001,-0.386,0.3635,-0.004,0.012,-0.054
1670356369.439965,-9.163,-0.12,4.868,-0.6519,-0.3891,0.3617,-0.006,0.019,-0.05
1670356369.479965,-9.179,-0.133,4.87,-0.6527000000000001,-0.3865,0.36160000000000003,-0.001,0.021,-0.052000000000000005
1670356369.519965,-9.154,-0.152,4.926,-0.6555000000000001,-0.38720000000000004,0.3628,0.001,0.023,-0.06
1670356369.559965,-9.13,-0.155,4.886,-0.654,-0.388,0.3654,0.001,0.013000000000000001,-0.05
1670356369.5999649,-9.153,-0.128,4.8950000000000005,-0.6529,-0.38580000000000003,0.36660000000000004,0.005,0.01,-0.043000000000000003
1670356369.639965,-9.185,-0.122,4.88,-0.6534,-0.3886,0.3643,0.014,0.006,-0.045
1670356369.679965,-9.163,-0.11900000000000001,4.902,-0.6538,-0.3879,0.3648,0.018000000000000002,0.007,-0.051000000000000004
1670356369.719965,-9.146,-0.161,4.918,-0.6529,-0.38670000000000004,0.3644,0.008,0.011,-0.06
1670356369.759965,-9.126,-0.11900000000000001,4.906,-0.6532,-0.3865,0.3642,0.007,0.009000000000000001,-0.055
1670356369.799965,-9.216000000000001,-0.096,4.862,-0.6538,-0.3855,0.3642,0.007,0.021,-0.042
1670356369.8399649,-9.126,-0.2,4.898,-0.653,-0.38720000000000004,0.3642,0.0,0.029,-0.056
1670356369.879965,-9.092,-0.113,4.8580000000000005,-0.6524,-0.38830000000000003,0.3637,-0.005,0.021,-0.057
1670356369.919965,-9.17,-0.099,4.885,-0.6546000000000001,-0.3859,0.3655,-0.002,0.013000000000000001,-0.045
1670356369.959965,-9.153,-0.129,4.949,-0.6528,-0.38580000000000003,0.3654,0.01,0.011,-0.055
1670356369.999965,-9.182,-0.17400000000000002,4.89,-0.6568,-0.389,0.3645,0.01,0.013000000000000001,-0.061
1670356370.039965,-9.206,-0.187,4.889,-0.6538,-0.3885,0.3637,-0.005,0.005,-0.053
1670356370.0799649,-9.17,-0.07,4.96,-0.6517000000000001,-0.38520000000000004,0.3637,-0.001,0.012,-0.033
1670356370.119965,-9.194,-0.14100000000000001,4.884,-0.6678000000000001,-0.3894,0.3659,0.015,0.028,-0.049
1670356370.159965,-9.121,-0.133,4.849,-0.6585000000000001,-0.3881,0.3688,0.022,0.028,-0.058
1670356370.199965,-9.120000000000001,-0.115,4.894,-0.6565000000000001,-0.38630000000000003,0.3654,0.005,0.011,-0.036000000000000004
1670356370.239965,-9.120000000000001,-0.084,4.923,-0.6565000000000001,-0.391,0.3493,0.012,0.006,-0.042
1670356370.279964,-9.184000000000001,-0.084,4.923,-0.6526000000000001,-0.391,0.3493,0.019,0.008,-0.057
1670356370.319964,-9.154,-0.121,4.882,-0.6602,-0.38970000000000005,0.3634,0.002,0.016,-0.056
1670356370.359964,-9.128,-0.134,4.934,-0.6551,-0.3886,0.36920000000000003,0.002,0.006,-0.048
1670356370.3999639,-9.159,-0.123,4.906,-0.6557000000000001,-0.3875,0.35700000000000004,0.004,0.021,-0.054
1670356370.439964,-9.178,-0.132,4.897,-0.6532,-0.3869,0.3753,0.003,0.021,-0.049
1670356370.479964,-9.159,-0.128,4.931,-0.6538,-0.38680000000000003,0.3664,-0.001,0.026000000000000002,-0.051000000000000004
1670356370.519964,-9.163,-0.129,4.914,-0.6557000000000001,-0.3874,0.368,0.005,0.02,-0.056
1670356370.559964,-9.148,-0.109,4.929,-0.6532,-0.3866,0.3635,0.004,0.019,-0.052000000000000005
1670356370.599964,-9.174,-0.109,4.902,-0.6535000000000001,-0.3874,0.3637,0.014,0.017,-0.053
1670356370.6399639,-9.163,-0.131,4.909,-0.6535000000000001,-0.3869,0.36610000000000004,0.016,0.019,-0.052000000000000005
1670356370.679964,-9.175,-0.176,4.912,-0.6549,-0.3874,0.3633,0.002,0.018000000000000002,-0.056
1670356370.719964,-9.158,-0.098,4.9350000000000005,-0.6518,-0.38730000000000003,0.3665,-0.001,0.026000000000000002,-0.038
1670356370.759964,-9.211,-0.038,4.909,-0.6526000000000001,-0.3865,0.3675,0.01,0.027,-0.049
1670356370.799964,-9.143,-0.20400000000000001,4.838,-0.6536000000000001,-0.3866,0.36560000000000004,0.011,0.019,-0.054
1670356370.839964,-9.124,-0.094,4.9030000000000005,-0.6516000000000001,-0.38830000000000003,0.3667,0.0,0.02,-0.048
1670356370.8799639,-9.142,-0.10200000000000001,4.872,-0.6504,-0.38780000000000003,0.36610000000000004,0.002,0.012,-0.049
1670356370.919964,-9.184000000000001,-0.107,4.924,-0.6505000000000001,-0.39,0.3665,0.008,0.009000000000000001,-0.054
1670356370.959964,-9.185,-0.135,4.907,-0.6508,-0.388,0.36460000000000004,0.006,0.018000000000000002,-0.054
1670356370.999964,-9.157,-0.165,4.91,-0.6517000000000001,-0.3889,0.3659,-0.006,0.026000000000000002,-0.045
1670356371.039964,-9.176,-0.004,4.938,-0.6519,-0.3885,0.3653,0.014,0.033,-0.051000000000000004
1670356371.079964,-9.179,-0.157,4.907,-0.6526000000000001,-0.38580000000000003,0.36460000000000004,0.015,0.033,-0.055
1670356371.119964,-9.152000000000001,-0.101,4.841,-0.6513,-0.38780000000000003,0.364,0.009000000000000001,0.023,-0.053
1670356371.159964,-9.139,-0.098,4.901,-0.6543,-0.38720000000000004,0.367,-0.001,0.013000000000000001,-0.052000000000000005
1670356371.199964,-9.166,-0.076,4.873,-0.6541,-0.38880000000000003,0.3624,0.008,0.011,-0.057
1670356371.239964,-9.159,-0.1,4.898,-0.6535000000000001,-0.38580000000000003,0.365,0.0,0.008,-0.061
1670356371.279964,-9.175,-0.155,4.861,-0.6566000000000001,-0.3899,0.36710000000000004,-0.008,0.008,-0.053
1670356371.319963,-9.154,-0.106,4.874,-0.6576000000000001,-0.3859,0.36610000000000004,-0.007,0.012,-0.046
1670356371.359963,-9.14,-0.108,4.894,-0.6532,-0.3864,0.3669,0.007,0.016,-0.053
1670356371.399963,-9.146,-0.12,4.882,-0.6532,-0.3866,0.3653,0.01,0.015,-0.056
1670356371.4399629,-9.143,-0.14,4.898,-0.6541,-0.3874,0.3673,0.006,0.015,-0.049
1670356371.479963,-9.146,-0.116,4.93,-0.6546000000000001,-0.3864,0.367,0.005,0.012,-0.045
1670356371.519963,-9.148,-0.092,4.889,-0.6528,-0.38730000000000003,0.36660000000000004,0.01,0.016,-0.053
1670356371.559963,-9.146,-0.127,4.914,-0.653,-0.39,0.3662,0.014,0.015,-0.052000000000000005
1670356371.599963,-9.177,-0.134,4.897,-0.6546000000000001,-0.3856,0.3645,0.006,0.016,-0.047
1670356371.639963,-9.069,-0.094,4.893,-0.6524,-0.3886,0.3639,-0.003,0.016,-0.054
1670356371.6799629,-9.16,-0.055,4.898,-0.6519,-0.3885,0.3687,0.005,0.01,-0.04
1670356371.719963,-9.172,-0.181,4.905,-0.6537000000000001,-0.39130000000000004,0.366,0.01,0.025,-0.06
1670356371.759963,-9.13,-0.083,4.896,-0.6554,-0.3869,0.366,0.002,0.022,-0.058
1670356371.799963,-9.159,-0.14300000000000002,4.886,-0.6545000000000001,-0.385,0.36310000000000003,-0.006,0.012,-0.047
1670356371.839963,-9.142,-0.11,4.9190000000000005,-0.6527000000000001,-0.3855,0.3633,0.002,0.016,-0.055
1670356371.879963,-9.157,-0.099,4.9030000000000005,-0.6524,-0.3875,0.3662,0.009000000000000001,0.011,-0.058
1670356371.919963,-9.097,-0.159,4.924,-0.6553,-0.38780000000000003,0.3663,0.006,0.015,-0.057
1670356371.959963,-9.1,-0.101,4.913,-0.6586000000000001,-0.38720000000000004,0.3657,-0.004,0.018000000000000002,-0.052000000000000005
1670356371.999963,-9.163,-0.17200000000000001,4.905,-0.6519,-0.38580000000000003,0.36710000000000004,0.004,0.024,-0.047
1670356372.039963,-9.148,-0.098,4.907,-0.6527000000000001,-0.38930000000000003,0.36610000000000004,0.007,0.031,-0.051000000000000004
1670356372.079963,-9.142,-0.129,4.88,-0.6521,-0.38480000000000003,0.3677,0.005,0.02,-0.047
1670356372.119963,-9.141,-0.101,4.944,-0.6505000000000001,-0.38730000000000003,0.36510000000000004,-0.001,0.012,-0.037
1670356372.159963,-9.169,-0.08600000000000001,4.909,-0.6536000000000001,-0.38720000000000004,0.3668,0.012,0.017,-0.056
1670356372.199963,-9.143,-0.145,4.916,-0.6531,-0.3924,0.365,0.0,0.021,-0.062
1670356372.239963,-9.147,-0.14300000000000002,4.888,-0.6544,-0.3875,0.3667,-0.006,0.018000000000000002,-0.05
1670356372.279963,-9.156,-0.117,4.924,-0.6549,-0.38680000000000003,0.37720000000000004,-0.011,0.02,-0.05
1670356372.319963,-9.162,-0.10400000000000001,4.906,-0.6604,-0.39030000000000004,0.3694,0.004,0.023,-0.055
1670356372.359962,-9.152000000000001,-0.135,4.92,-0.654,-0.3889,0.3679,0.008,0.024,-0.052000000000000005
1670356372.399962,-9.161,-0.132,4.9,-0.657,-0.38970000000000005,0.3546,0.006,0.016,-0.046
1670356372.439962,-9.157,-0.10200000000000001,4.891,-0.66,-0.39,0.3487,0.007,0.012,-0.048
1670356372.4799619,-9.157,-0.088,4.914,-0.66,-0.38870000000000005,0.3745,0.01,0.014,-0.048
1670356372.519962,-9.123,-0.088,4.914,-0.6552,-0.38870000000000005,0.3745,0.008,0.016,-0.05
1670356372.559962,-9.135,-0.11800000000000001,4.914,-0.658,-0.3881,0.37370000000000003,0.004,0.021,-0.054
1670356372.599962,-9.156,-0.17,4.8500000000000005,-0.6544,-0.38730000000000003,0.37170000000000003,0.0,0.015,-0.049
1670356372.639962,-9.184000000000001,-0.111,4.928,-0.6556000000000001,-0.38770000000000004,0.3754,0.001,0.014,-0.036000000000000004
1670356372.679962,-9.197000000000001,-0.019,4.92,-0.6529,-0.3891,0.3672,0.009000000000000001,0.012,-0.054
1670356372.719962,-9.139,-0.198,4.88,-0.6537000000000001,-0.39,0.366,-0.007,0.009000000000000001,-0.068
1670356372.759962,-9.118,-0.105,4.8870000000000005,-0.6544,-0.3894,0.36260000000000003,-0.013000000000000001,0.004,-0.05
1670356372.799962,-9.166,-0.135,4.889,-0.6532,-0.3856,0.3659,-0.001,0.006,-0.058
1670356372.839962,-9.147,-0.121,4.984,-0.6543,-0.3874,0.36560000000000004,0.017,0.008,-0.062
1670356372.879962,-9.152000000000001,-0.166,4.966,-0.6565000000000001,-0.3889,0.3664,0.002,0.014,-0.059000000000000004
1670356372.919962,-9.144,-0.222,4.9190000000000005,-0.654,-0.385,0.3665,-0.016,0.018000000000000002,-0.032
1670356372.959962,-9.146,-0.018000000000000002,4.992,-0.6541,-0.3856,0.36710000000000004,0.017,0.032,-0.055
1670356372.999962,-9.125,-0.17500000000000002,4.873,-0.6583,-0.3871,0.3675,0.024,0.021,-0.057
1670356373.039962,-9.138,-0.151,4.905,-0.6532,-0.3896,0.3673,0.0,0.02,-0.031
1670356373.079962,-9.127,-0.083,4.958,-0.6555000000000001,-0.38730000000000003,0.3653,0.0,0.02,-0.034
1670356373.119962,-9.161,-0.08700000000000001,4.926,-0.657,-0.38970000000000005,0.37510000000000004,0.018000000000000002,0.019,-0.064
1670356373.159962,-9.138,-0.14100000000000001,4.9510000000000005,-0.6536000000000001,-0.3864,0.3667,0.002,0.015,-0.056
1670356373.199962,-9.133000000000001,-0.149,4.938,-0.6548,-0.3886,0.3688,-0.015,0.012,-0.044
1670356373.239962,-9.135,-0.125,4.956,-0.6563,-0.3855,0.3662,-0.008,0.016,-0.049
1670356373.279962,-9.139,-0.117,4.9350000000000005,-0.6555000000000001,-0.38830000000000003,0.3669,-0.002,0.021,-0.056
1670356373.319962,-9.146,-0.138,4.924,-0.6558,-0.3906,0.3683,0.001,0.019,-0.055
1670356373.359962,-9.114,-0.157,4.9510000000000005,-0.66,-0.3895,0.36960000000000004,0.005,0.016,-0.05
1670356373.399961,-9.149000000000001,-0.125,4.928,-0.651,-0.38770000000000004,0.3664,0.012,0.012,-0.049
1670356373.439961,-9.129,-0.14100000000000001,4.947,-0.6544,-0.3864,0.36510000000000004,0.008,0.016,-0.05
1670356373.479961,-9.138,-0.14300000000000002,4.913,-0.6532,-0.3875,0.367,0.011,0.024,-0.047
1670356373.5199609,-9.131,-0.105,4.957,-0.6546000000000001,-0.38780000000000003,0.3648,0.011,0.016,-0.048
1670356373.559961,-9.117,-0.15,4.916,-0.6546000000000001,-0.3874,0.3682,0.001,0.012,-0.048
1670356373.599961,-9.205,-0.114,4.923,-0.6559,-0.3885,0.3644,0.01,0.021,-0.041
1670356373.639961,-9.194,-0.124,4.92,-0.654,-0.3886,0.3673,0.009000000000000001,0.028,-0.052000000000000005
1670356373.679961,-9.114,-0.096,4.9030000000000005,-0.6523,-0.38580000000000003,0.3654,0.002,0.025,-0.053
1670356373.719961,-9.120000000000001,-0.14,4.892,-0.6544,-0.39,0.3653,-0.004,0.012,-0.053
1670356373.759961,-9.136000000000001,-0.108,4.931,-0.6555000000000001,-0.3869,0.3645,0.001,0.009000000000000001,-0.055
1670356373.799961,-9.16,-0.115,4.968,-0.6565000000000001,-0.38730000000000003,0.3642,0.005,0.009000000000000001,-0.058
1670356373.839961,-9.111,-0.21,4.955,-0.6559,-0.38670000000000004,0.3673,-0.005,0.005,-0.059000000000000004
1670356373.799961,-9.108,-0.07,4.963,-0.6556000000000001,-0.3854,0.366,0.005,0.011,-0.044
1670356373.839961,-9.136000000000001,-0.17400000000000002,4.928,-0.6547000000000001,-0.38780000000000003,0.36300000000000004,0.015,0.021,-0.053
1670356373.879961,-9.134,-0.122,4.922,-0.6541,-0.38470000000000004,0.3649,0.015,0.024,-0.06
1670356373.919961,-9.099,-0.134,4.918,-0.6554,-0.3865,0.3653,0.005,0.025,-0.043000000000000003
1670356373.959961,-9.117,-0.113,4.904,-0.654,-0.3891,0.3673,0.005,0.021,-0.046
1670356373.999961,-9.172,-0.122,4.942,-0.6577000000000001,-0.38480000000000003,0.3645,0.018000000000000002,0.015,-0.063
1670356374.039961,-9.157,-0.156,4.921,-0.6556000000000001,-0.38770000000000004,0.3649,0.003,0.016,-0.062
1670356374.079961,-9.154,-0.131,4.929,-0.6544,-0.38630000000000003,0.3662,0.0,0.016,-0.048
1670356374.119961,-9.133000000000001,-0.116,4.912,-0.6563,-0.38570000000000004,0.36970000000000003,0.001,0.014,-0.047
1670356374.159961,-9.135,-0.126,4.92,-0.6532,-0.38620000000000004,0.364,0.003,0.021,-0.059000000000000004
1670356374.199961,-9.127,-0.134,4.941,-0.656,-0.3866,0.3653,0.009000000000000001,0.02,-0.055
1670356374.239961,-9.115,-0.126,4.925,-0.6549,-0.3894,0.36860000000000004,0.006,0.012,-0.049
1670356374.279961,-9.138,-0.123,4.945,-0.6576000000000001,-0.38770000000000004,0.36510000000000004,0.005,0.016,-0.051000000000000004
1670356374.319961,-9.151,-0.135,4.938,-0.6549,-0.3859,0.366,0.011,0.011,-0.057
1670356374.359961,-9.141,-0.18,4.9350000000000005,-0.6575000000000001,-0.3874,0.36970000000000003,0.005,0.014,-0.053
1670356374.399961,-9.152000000000001,-0.14,4.925,-0.6548,-0.38580000000000003,0.3654,0.008,0.009000000000000001,-0.044
1670356374.43996,-9.178,-0.038,4.976,-0.6563,-0.3856,0.365,0.016,0.009000000000000001,-0.034
1670356374.47996,-9.123,-0.196,4.9030000000000005,-0.6538,-0.38570000000000004,0.3673,0.017,0.027,-0.062
1670356374.51996,-9.108,-0.14,4.906,-0.6571,-0.38720000000000004,0.3639,0.005,0.025,-0.059000000000000004
1670356374.55996,-9.124,-0.099,4.9510000000000005,-0.6552,-0.3875,0.3649,-0.006,0.021,-0.043000000000000003
1670356374.59996,-9.159,-0.073,4.926,-0.6518,-0.3846,0.3428,0.0,0.015,-0.055
1670356374.63996,-9.179,-0.15,4.925,-0.6563,-0.38730000000000003,0.3355,0.016,0.013000000000000001,-0.059000000000000004
1670356374.67996,-9.179,-0.15,4.913,-0.6563,-0.38730000000000003,0.3602,0.002,0.014,-0.058
1670356374.71996,-9.139,-0.189,4.913,-0.6585000000000001,-0.38470000000000004,0.3602,0.003,0.01,-0.038
1670356374.75996,-9.172,-0.035,4.955,-0.6588,-0.38720000000000004,0.39790000000000003,0.013000000000000001,0.019,-0.056
1670356374.79996,-9.154,-0.137,4.922,-0.6551,-0.38770000000000004,0.3708,0.014,0.023,-0.056
1670356374.83996,-9.13,-0.14300000000000002,4.925,-0.6549,-0.38870000000000005,0.3534,0.0,0.018000000000000002,-0.047
1670356374.87996,-9.112,-0.12,4.926,-0.6555000000000001,-0.38470000000000004,0.36970000000000003,-0.001,0.009000000000000001,-0.045
1670356374.91996,-9.144,-0.095,4.93,-0.6584,-0.3884,0.367,0.004,0.01,-0.061
1670356374.95996,-9.141,-0.14400000000000002,4.931,-0.6587000000000001,-0.38680000000000003,0.3684,0.0,0.017,-0.052000000000000005
1670356374.99996,-9.132,-0.154,4.9350000000000005,-0.6549,-0.3874,0.36610000000000004,-0.007,0.025,-0.045
1670356375.03996,-9.144,-0.108,4.9110000000000005,-0.6551,-0.3891,0.365,-0.002,0.025,-0.052000000000000005
1670356375.07996,-9.120000000000001,-0.14100000000000001,4.9510000000000005,-0.6543,-0.38830000000000003,0.3653,0.006,0.026000000000000002,-0.054
1670356375.11996,-9.142,-0.14,4.945,-0.663,-0.3871,0.3708,0.011,0.022,-0.048
1670356375.15996,-9.162,-0.153,4.9,-0.6542,-0.38670000000000004,0.3652,0.007,0.011,-0.045
1670356375.19996,-9.118,-0.089,4.926,-0.657,-0.38770000000000004,0.3749,0.007,0.014,-0.048
1670356375.23996,-9.125,-0.107,4.885,-0.6549,-0.3856,0.3668,0.009000000000000001,0.012,-0.05
1670356375.27996,-9.142,-0.158,4.934,-0.6591,-0.38830000000000003,0.3669,0.002,0.008,-0.05
1670356375.31996,-9.163,-0.126,4.965,-0.6573,-0.3881,0.3662,0.003,0.012,-0.04
1670356375.35996,-9.184000000000001,-0.012,4.94,-0.6537000000000001,-0.38720000000000004,0.3663,0.011,0.021,-0.054
1670356375.39996,-9.114,-0.202,4.889,-0.6555000000000001,-0.3885,0.3679,0.002,0.019,-0.056
1670356375.43996,-9.087,-0.12,4.931,-0.6569,-0.38580000000000003,0.3653,-0.009000000000000001,0.016,-0.045
1670356375.479959,-9.108,-0.099,4.961,-0.6577000000000001,-0.3896,0.3654,-0.002,0.009000000000000001,-0.048
1670356375.519959,-9.146,-0.107,4.97,-0.6518,-0.3876,0.3668,0.007,0.008,-0.058
1670356375.559959,-9.147,-0.167,4.949,-0.6552,-0.386,0.3668,-0.002,0.019,-0.061
1670356375.599959,-9.142,-0.192,4.932,-0.6535000000000001,-0.386,0.36710000000000004,-0.014,0.019,-0.041
1670356375.639959,-9.161,-0.05,4.956,-0.656,-0.3851,0.3684,0.0,0.027,-0.046
1670356375.679959,-9.148,-0.129,4.944,-0.6576000000000001,-0.38580000000000003,0.3642,0.017,0.025,-0.054
1670356375.719959,-9.087,-0.14100000000000001,4.942,-0.6574,-0.3885,0.37070000000000003,0.009000000000000001,0.024,-0.048
1670356375.759959,-9.107,-0.129,4.926,-0.6549,-0.3845,0.36970000000000003,-0.002,0.01,-0.046
1670356375.799959,-9.147,-0.097,4.95,-0.6562,-0.38670000000000004,0.3678,0.009000000000000001,0.01,-0.051000000000000004
1670356375.839959,-9.145,-0.14400000000000002,4.948,-0.6571,-0.38480000000000003,0.3657,0.003,0.013000000000000001,-0.058
1670356375.879959,-9.112,-0.152,4.934,-0.6557000000000001,-0.3902,0.36710000000000004,-0.002,0.013000000000000001,-0.056
1670356375.919959,-9.108,-0.137,4.925,-0.6534,-0.38530000000000003,0.36510000000000004,-0.01,0.014,-0.049
1670356375.959959,-9.141,-0.138,4.947,-0.6574,-0.3861,0.3657,-0.004,0.024,-0.051000000000000004
1670356375.999959,-9.124,-0.131,4.982,-0.6532,-0.3869,0.36810000000000004,0.001,0.021,-0.052000000000000005
1670356376.039959,-9.108,-0.159,4.98,-0.6576000000000001,-0.388,0.3654,0.003,0.02,-0.051000000000000004
1670356376.079959,-9.133000000000001,-0.16,4.958,-0.6566000000000001,-0.3859,0.367,0.002,0.015,-0.051000000000000004
1670356376.119959,-9.087,-0.14100000000000001,4.9590000000000005,-0.6538,-0.38470000000000004,0.3638,0.009000000000000001,0.019,-0.047
1670356376.159959,-9.078,-0.146,4.941,-0.6567000000000001,-0.3849,0.3662,0.008,0.021,-0.052000000000000005
1670356376.199959,-9.164,-0.14,4.976,-0.6565000000000001,-0.3885,0.36760000000000004,0.014,0.026000000000000002,-0.046
1670356376.239959,-9.211,-0.123,4.964,-0.6573,-0.3885,0.36920000000000003,0.017,0.037,-0.048
1670356376.279959,-9.086,-0.152,4.891,-0.6618,-0.3855,0.3663,0.007,0.03,-0.049
1670356376.319959,-9.104000000000001,-0.126,4.876,-0.6536000000000001,-0.38720000000000004,0.36660000000000004,-0.004,0.02,-0.047
1670356376.359959,-9.142,-0.108,4.952,-0.6546000000000001,-0.387,0.3658,0.001,0.012,-0.053
1670356376.3999588,-9.148,-0.14400000000000002,4.976,-0.6552,-0.3881,0.3679,0.012,0.008,-0.066
1670356376.439959,-9.092,-0.202,4.915,-0.6555000000000001,-0.3871,0.3659,0.01,0.009000000000000001,-0.058
1670356376.479959,-9.089,-0.08700000000000001,4.962,-0.6533,-0.3881,0.3632,0.0,0.013000000000000001,-0.035
1670356376.519958,-9.139,-0.165,4.934,-0.6534,-0.38730000000000003,0.3672,0.012,0.019,-0.047
1670356376.559958,-9.117,-0.099,4.926,-0.6543,-0.38820000000000005,0.3647,0.021,0.03,-0.057
1670356376.599958,-9.111,-0.167,4.971,-0.6549,-0.3894,0.3689,0.013000000000000001,0.031,-0.043000000000000003
1670356376.639958,-9.120000000000001,-0.11,4.944,-0.6542,-0.38670000000000004,0.36710000000000004,-0.011,0.018000000000000002,-0.025
1670356376.679958,-9.145,-0.064,4.931,-0.653,-0.3875,0.3664,0.011,0.009000000000000001,-0.045
1670356376.719958,-9.155,-0.12,4.961,-0.654,-0.38780000000000003,0.3642,0.029,0.009000000000000001,-0.069
1670356376.759958,-9.124,-0.14100000000000001,4.902,-0.6552,-0.38830000000000003,0.3693,0.022,0.007,-0.06
1670356376.799958,-9.127,-0.13,4.925,-0.6529,-0.388,0.3665,0.007,0.014,-0.039
1670356376.839958,-9.127,-0.097,4.9590000000000005,-0.6563,-0.387,0.387,0.01,0.015,-0.048
1670356376.879958,-9.136000000000001,-0.125,4.955,-0.6562,-0.3891,0.3664,0.011,0.011,-0.061
1670356376.919958,-9.136000000000001,-0.129,4.992,-0.6562,-0.3891,0.35600000000000004,0.012,0.004,-0.055
1670356376.959958,-9.120000000000001,-0.129,4.992,-0.6568,-0.38770000000000004,0.35600000000000004,0.004,0.001,-0.052000000000000005
1670356376.999958,-9.091,-0.114,4.947,-0.6572,-0.388,0.3899,0.002,0.007,-0.057
1670356377.039958,-9.164,-0.098,4.995,-0.6585000000000001,-0.39030000000000004,0.37020000000000003,0.013000000000000001,0.012,-0.057
1670356377.079958,-9.136000000000001,-0.126,5.019,-0.6581,-0.3879,0.3896,0.005,0.024,-0.056
1670356377.119958,-9.104000000000001,-0.169,4.958,-0.6698000000000001,-0.3935,0.3719,-0.003,0.02,-0.045
1670356377.159958,-9.137,-0.129,5.011,-0.6553,-0.38670000000000004,0.36860000000000004,-0.006,0.029,-0.035
1670356377.1999578,-9.18,-0.052000000000000005,4.953,-0.6559,-0.38880000000000003,0.3689,0.003,0.036000000000000004,-0.058
1670356377.239958,-9.126,-0.193,4.9430000000000005,-0.6559,-0.3885,0.3669,-0.008,0.034,-0.063
1670356377.279958,-9.086,-0.14300000000000002,4.905,-0.6604,-0.3902,0.3776,-0.015,0.018000000000000002,-0.046
1670356377.319958,-9.112,-0.109,4.9670000000000005,-0.6602,-0.3891,0.369,-0.005,0.013000000000000001,-0.065
1670356377.359958,-9.132,-0.117,4.932,-0.6571,-0.38670000000000004,0.3662,0.013000000000000001,0.008,-0.065
1670356377.399958,-9.15,-0.164,4.965,-0.6554,-0.38670000000000004,0.3664,0.003,0.014,-0.054
1670356377.4399579,-9.168000000000001,-0.195,4.956,-0.6528,-0.3851,0.36660000000000004,-0.005,0.008,-0.046
1670356377.479958,-9.139,-0.06,4.998,-0.6575000000000001,-0.38580000000000003,0.3664,0.012,0.014,-0.05
1670356377.519958,-9.166,-0.146,4.947,-0.655,-0.3876,0.3653,0.014,0.021,-0.058
1670356377.559958,-9.111,-0.161,4.9910000000000005,-0.654,-0.3891,0.368,0.009000000000000001,0.013000000000000001,-0.044
1670356377.599958,-9.083,-0.137,4.989,-0.6566000000000001,-0.38870000000000005,0.36610000000000004,0.003,0.008,-0.045
1670356377.639957,-9.124,-0.095,4.96,-0.6549,-0.38730000000000003,0.3667,0.015,0.011,-0.055
1670356377.679957,-9.139,-0.131,4.977,-0.6543,-0.38570000000000004,0.3668,0.015,0.006,-0.06
1670356377.719957,-9.102,-0.159,4.972,-0.6562,-0.38680000000000003,0.3673,-0.008,0.016,-0.048
1670356377.759957,-9.114,-0.137,4.998,-0.6548,-0.38980000000000004,0.3673,-0.001,0.014,-0.049
1670356377.799957,-9.131,-0.138,5.0,-0.6568,-0.38670000000000004,0.3642,0.006,0.019,-0.049
1670356377.839957,-9.121,-0.153,4.955,-0.6565000000000001,-0.3855,0.36810000000000004,0.003,0.021,-0.057
1670356377.879957,-9.106,-0.16,4.973,-0.6555000000000001,-0.38920000000000005,0.3662,0.002,0.021,-0.047
1670356377.919957,-9.098,-0.149,4.957,-0.6565000000000001,-0.38670000000000004,0.36810000000000004,0.001,0.013000000000000001,-0.05
1670356377.959957,-9.121,-0.134,4.997,-0.6546000000000001,-0.3849,0.3679,0.012,0.015,-0.047
1670356377.9999568,-9.101,-0.146,4.956,-0.6543,-0.387,0.36760000000000004,0.012,0.022,-0.055
1670356378.039957,-9.099,-0.196,4.9350000000000005,-0.6554,-0.3884,0.36760000000000004,-0.003,0.016,-0.045
1670356378.079957,-9.129,-0.14200000000000002,4.981,-0.6559,-0.38380000000000003,0.365,-0.003,0.025,-0.036000000000000004
1670356378.119957,-9.185,-0.043000000000000003,5.006,-0.6572,-0.38920000000000005,0.3657,0.012,0.027,-0.055
1670356378.159957,-9.096,-0.17400000000000002,4.931,-0.656,-0.3869,0.3659,0.008,0.022,-0.06
1670356378.199957,-9.069,-0.185,4.904,-0.6559,-0.38630000000000003,0.3664,-0.012,0.022,-0.046
1670356378.2399569,-9.108,-0.10300000000000001,4.938,-0.6551,-0.387,0.3668,-0.009000000000000001,0.012,-0.044
1670356378.279957,-9.139,-0.10400000000000001,4.965,-0.6574,-0.3894,0.3678,0.015,0.01,-0.059000000000000004
1670356378.319957,-9.14,-0.191,4.985,-0.6591,-0.3895,0.3672,0.01,0.023,-0.062
1670356378.359957,-9.119,-0.19,4.994,-0.6564,-0.387,0.364,-0.009000000000000001,0.023,-0.05
1670356378.399957,-9.169,-0.066,4.964,-0.6554,-0.3889,0.36560000000000004,0.002,0.024,-0.045
1670356378.439957,-9.166,-0.117,4.9910000000000005,-0.6546000000000001,-0.3845,0.36560000000000004,0.006,0.027,-0.054
1670356378.4799569,-9.094,-0.168,4.982,-0.6556000000000001,-0.388,0.3677,0.011,0.024,-0.053
1670356378.519957,-9.109,-0.129,4.955,-0.6557000000000001,-0.3851,0.36760000000000004,0.0,0.015,-0.047
1670356378.559957,-9.136000000000001,-0.122,4.964,-0.6554,-0.3854,0.36460000000000004,0.002,0.013000000000000001,-0.053
1670356378.599957,-9.142,-0.148,4.97,-0.6581,-0.38930000000000003,0.3689,0.009000000000000001,0.012,-0.058
1670356378.639957,-9.132,-0.17200000000000001,4.973,-0.6548,-0.3866,0.3687,-0.006,0.017,-0.054
1670356378.679956,-9.127,-0.158,4.955,-0.6565000000000001,-0.3851,0.3679,-0.008,0.022,-0.054
1670356378.719956,-9.133000000000001,-0.149,4.98,-0.6571,-0.3851,0.364,-0.003,0.024,-0.047
1670356378.759956,-9.124,-0.14300000000000002,5.0,-0.6578,-0.3859,0.3639,0.002,0.016,-0.054
1670356378.7999558,-9.11,-0.158,4.973,-0.656,-0.3851,0.3668,0.003,0.017,-0.053
1670356378.839956,-9.1,-0.148,4.953,-0.6561,-0.385,0.3684,0.002,0.02,-0.048
1670356378.879956,-9.132,-0.14100000000000001,4.933,-0.659,-0.38630000000000003,0.37060000000000004,0.005,0.014,-0.051000000000000004
1670356378.919956,-9.119,-0.146,4.97,-0.6551,-0.3844,0.3682,0.008,0.019,-0.051000000000000004
