timestamp,acc_x,acc_y,acc_z,magn_x,magn_y,magn_z,gyro_x,gyro_y,gyro_z
1670267492.08,-8.794,-2.035,4.708,0.8009000000000001,0.5811000000000001,-0.002,0.517,0.47000000000000003,0.273
1670267492.12,-9.623,-1.75,3.386,0.8031,0.5753,0.0018000000000000002,0.606,0.301,0.292
1670267492.16,-9.886000000000001,-1.444,2.992,0.8067000000000001,0.5706,0.0004,0.651,0.24,0.215
1670267492.2,-9.321,-1.48,2.6670000000000003,0.8073,0.5636,0.0024000000000000002,0.551,0.227,0.084
1670267492.24,-9.749,-1.631,2.375,0.8124,0.559,0.0078000000000000005,0.441,0.18,0.07200000000000001
1670267492.28,-9.832,-0.987,2.187,0.8055,0.5525,0.0132,0.315,0.313,0.088
1670267492.32,-9.864,-0.711,2.134,0.8103,0.5529000000000001,0.008700000000000001,0.276,0.301,0.085
1670267492.36,-9.985,-0.997,2.189,0.8175,0.5503,0.007500000000000001,0.253,0.164,-0.096
1670267492.4,-10.235,-0.974,2.608,0.8124,0.5529000000000001,0.010400000000000001,0.21,0.023,-0.27
1670267492.44,-9.715,-1.233,2.903,0.8089000000000001,0.5521,0.010400000000000001,0.228,-0.063,-0.458
1670267492.48,-9.657,-1.497,3.169,0.8062,0.5589000000000001,0.013300000000000001,0.219,-0.029,-0.642
1670267492.52,-9.47,-2.223,3.112,0.7987000000000001,0.5643,0.0166,0.125,0.005,-0.664
1670267492.559999,-9.244,-2.535,3.234,0.7943,0.5708,0.0165,-0.056,0.031,-0.562
1670267492.599999,-9.269,-2.995,2.994,0.7896000000000001,0.5759000000000001,0.0172,-0.186,0.058,-0.41100000000000003
1670267492.639999,-9.34,-2.84,3.166,0.7853,0.5817,0.0142,-0.222,0.107,-0.216
1670267492.6799989,-9.393,-3.025,3.263,0.7841,0.5819,0.0166,-0.23,-0.019,-0.121
1670267492.719999,-9.126,-2.976,3.476,0.7845000000000001,0.5846,0.014400000000000001,-0.18,-0.20600000000000002,-0.011
1670267492.759999,-8.881,-2.847,3.59,0.7846000000000001,0.5838,0.0142,-0.065,-0.352,0.08700000000000001
1670267492.799999,-9.215,-2.375,3.874,0.781,0.5803,0.0219,0.099,-0.338,0.171
1670267492.839999,-9.143,-2.238,4.062,0.7807000000000001,0.5767,0.028900000000000002,0.28800000000000003,-0.23800000000000002,0.231
1670267492.879999,-9.352,-2.013,4.273,0.784,0.5708,0.034300000000000004,0.337,-0.153,0.296
1670267492.919999,-9.233,-1.996,4.204,0.787,0.5650000000000001,0.0369,0.231,-0.098,0.308
1670267492.959999,-9.15,-1.726,4.288,0.7877000000000001,0.5592,0.042,0.069,-0.13,0.31
1670267492.999999,-8.941,-1.478,4.4,0.7866000000000001,0.5584,0.0429,-0.136,-0.16,0.279
1670267493.039999,-9.167,-1.31,4.4670000000000005,0.7891,0.5543,0.0426,-0.199,-0.17400000000000002,0.281
1670267493.079999,-9.264,-0.995,4.715,0.7893,0.5518000000000001,0.045200000000000004,-0.12,-0.188,0.218
1670267493.119999,-9.105,-0.8260000000000001,4.704,0.7912,0.5484,0.0495,-0.031,-0.158,0.21
1670267493.159999,-9.367,-0.777,4.513,0.7915000000000001,0.5467000000000001,0.051300000000000005,0.036000000000000004,-0.052000000000000005,0.199
1670267493.199999,-9.354000000000001,-1.051,4.018,0.792,0.5448000000000001,0.049,-0.006,0.14300000000000002,0.128
1670267493.239999,-9.370000000000001,-1.022,3.895,0.7903,0.5401,0.049100000000000005,-0.039,0.231,0.059000000000000004
1670267493.279999,-9.123,-1.239,3.543,0.7938000000000001,0.5385,0.045700000000000005,-0.112,0.326,-0.014
1670267493.319999,-9.184000000000001,-1.425,3.218,0.7952,0.5402,0.0451,-0.152,0.34500000000000003,-0.047
1670267493.359999,-9.722,-1.617,3.091,0.7983,0.5438000000000001,0.0354,-0.224,0.316,-0.029
1670267493.399999,-9.877,-1.616,3.346,0.7949,0.5436,0.033600000000000005,-0.243,0.252,0.02
1670267493.439999,-9.909,-1.975,3.323,0.7973,0.5432,0.029,-0.254,0.17,0.023
1670267493.479999,-9.923,-1.928,3.182,0.7972,0.5453,0.0261,-0.23700000000000002,0.11800000000000001,0.009000000000000001
1670267493.519999,-9.61,-2.487,2.982,0.7932,0.5434,0.0247,-0.271,0.116,-0.074
1670267493.559999,-9.801,-2.749,3.055,0.7972,0.544,0.0224,-0.441,0.08600000000000001,-0.134
1670267493.599998,-9.236,-2.451,3.0460000000000003,0.7974,0.5511,0.0187,-0.46900000000000003,0.085,-0.098
1670267493.639998,-9.067,-2.117,3.065,0.7955,0.5503,0.0132,-0.488,-0.004,-0.011
1670267493.679998,-9.442,-1.462,3.093,0.7953,0.5517000000000001,0.0152,-0.369,0.059000000000000004,0.097
1670267493.719998,-9.593,-1.289,3.501,0.7986000000000001,0.5531,0.0103,-0.117,0.056,0.166
1670267493.759998,-9.450000000000001,-1.693,3.297,0.7969,0.5488000000000001,0.0097,0.099,0.178,0.021
1670267493.799998,-9.457,-1.7510000000000001,3.3770000000000002,0.7984,0.5477000000000001,0.009600000000000001,0.122,0.122,-0.11900000000000001
1670267493.839998,-9.701,-2.123,3.599,0.7985,0.5506,0.0082,0.135,0.053,-0.328
1670267493.879998,-9.232,-2.66,3.5620000000000003,0.7945,0.5538000000000001,0.0103,0.089,-0.031,-0.444
1670267493.919998,-9.048,-3.106,3.696,0.789,0.5569000000000001,0.012700000000000001,-0.06,-0.157,-0.523
1670267493.959998,-8.972,-3.3930000000000002,3.7070000000000003,0.7832,0.5657,0.015300000000000001,-0.196,-0.217,-0.527
1670267493.999998,-9.048,-3.364,3.465,0.7799,0.5712,0.015300000000000001,-0.368,-0.17500000000000002,-0.433
1670267494.039998,-9.063,-3.107,3.363,0.7782,0.5770000000000001,0.01,-0.402,-0.014,-0.273
1670267494.079998,-9.537,-2.896,3.354,0.7748,0.5783,0.0091,-0.401,0.065,-0.147
1670267494.119998,-9.525,-2.646,3.172,0.7712,0.5827,0.0091,-0.279,0.17500000000000002,-0.004
1670267494.159998,-9.402000000000001,-2.529,2.9130000000000003,0.7779,0.5784,0.0018000000000000002,-0.17400000000000002,0.23900000000000002,0.05
1670267494.199998,-9.232,-2.575,2.7960000000000003,0.779,0.5820000000000001,0.0004,-0.035,0.21,0.052000000000000005
1670267494.239998,-9.133000000000001,-2.6670000000000003,2.693,0.7726000000000001,0.5811000000000001,0.0011,-0.01,0.111,0.03
1670267494.279998,-9.114,-2.335,2.815,0.7779,0.5794,0.0006000000000000001,-0.006,-0.042,0.053
1670267494.319998,-8.998,-2.2600000000000002,2.872,0.7823,0.5772,0.0023,0.024,-0.11800000000000001,0.063
1670267494.359998,-8.771,-2.1510000000000002,3.035,0.7782,0.5759000000000001,0.0076,0.064,-0.227,0.07
1670267494.399998,-9.152000000000001,-2.44,3.282,0.7795000000000001,0.5740000000000001,0.019100000000000002,0.059000000000000004,-0.311,0.028
1670267494.439998,-9.464,-2.154,3.6470000000000002,0.7794000000000001,0.5746,0.0064,0.027,-0.29,0.08700000000000001
1670267494.479998,-9.505,-2.266,3.9610000000000003,0.7771,0.5714,0.026600000000000002,0.0,-0.222,0.13
1670267494.519998,-9.743,-2.128,4.135,0.7771,0.5703,0.015700000000000002,0.004,-0.132,0.192
1670267494.559998,-9.743,-2.165,3.839,0.7785000000000001,0.5703,0.0095,-0.075,0.044,0.164
1670267494.599998,-9.491,-2.165,3.79,0.7802,0.5640000000000001,0.0095,-0.231,0.008,0.163
1670267494.639997,-9.239,-1.737,3.79,0.7819,0.5628000000000001,0.0021000000000000003,-0.249,-0.01,0.064
1670267494.679997,-9.309000000000001,-1.802,3.801,0.7796000000000001,0.5649000000000001,0.039400000000000004,-0.148,0.011,-0.068
1670267494.719997,-9.348,-2.081,3.801,0.7851,0.5653,0.0269,-0.122,-0.001,-0.127
1670267494.759997,-9.425,-2.356,3.793,0.7795000000000001,0.5688,0.0339,-0.138,0.007,-0.123
1670267494.799997,-9.421,-2.473,3.766,0.7788,0.5702,0.01,-0.152,0.011,-0.07200000000000001
1670267494.839997,-9.183,-2.343,3.5820000000000003,0.7759,0.5662,0.0103,-0.11800000000000001,0.011,-0.015
1670267494.879997,-9.173,-2.257,3.503,0.7821,0.5697,0.0154,-0.094,0.022,-0.01
1670267494.919997,-9.215,-2.33,3.3770000000000002,0.7716000000000001,0.5697,0.017400000000000002,-0.082,0.036000000000000004,-0.01
1670267494.959997,-9.356,-2.43,3.3890000000000002,0.7821,0.5672,0.0131,-0.085,0.029,-0.008
1670267494.999997,-9.391,-2.315,3.48,0.78,0.5665,0.020900000000000002,-0.062,-0.001,0.029
1670267495.039997,-9.338000000000001,-2.238,3.525,0.7846000000000001,0.5686,0.016900000000000002,-0.027,-0.018000000000000002,0.021
1670267495.079997,-9.264,-2.212,3.516,0.7834,0.5680000000000001,0.0151,-0.023,-0.016,-0.005
1670267495.119997,-9.242,-2.235,3.37,0.7841,0.5670000000000001,0.013600000000000001,-0.036000000000000004,-0.005,-0.032
1670267495.159997,-9.311,-2.32,3.539,0.782,0.5696,0.0204,-0.061,-0.012,-0.03
1670267495.199997,-9.308,-2.312,3.602,0.7819,0.5688,0.014700000000000001,-0.084,-0.022,-0.033
1670267495.239997,-9.308,-2.2840000000000003,3.572,0.7831,0.5679000000000001,0.0162,-0.085,-0.019,-0.036000000000000004
1670267495.279997,-9.266,-2.239,3.704,0.782,0.5658000000000001,0.0167,-0.057,-0.011,-0.036000000000000004
1670267495.319997,-9.246,-2.302,3.718,0.7815000000000001,0.5648000000000001,0.0183,-0.051000000000000004,-0.009000000000000001,-0.039
1670267495.359997,-9.293000000000001,-2.262,3.638,0.7832,0.5689000000000001,0.0187,-0.049,0.009000000000000001,-0.034
1670267495.399997,-9.282,-2.212,3.628,0.7815000000000001,0.5695,0.0193,-0.037,0.015,-0.03
1670267495.439997,-9.345,-2.27,3.725,0.7813,0.5679000000000001,0.016,-0.028,0.032,-0.025
1670267495.479997,-9.238,-2.275,3.634,0.7775000000000001,0.5643,0.0274,-0.053,0.017,-0.014
1670267495.519997,-9.223,-2.245,3.5780000000000003,0.7795000000000001,0.5682,0.0217,-0.074,0.005,-0.011
1670267495.5599968,-9.312,-2.257,3.6430000000000002,0.7744000000000001,0.5678000000000001,0.0224,-0.10300000000000001,0.013000000000000001,-0.009000000000000001
1670267495.599997,-9.256,-2.282,3.5740000000000003,0.7848,0.5694,0.02,-0.105,0.015,-0.016
1670267495.639997,-9.257,-2.289,3.626,0.7772,0.5678000000000001,0.021500000000000002,-0.106,0.015,-0.034
1670267495.679996,-9.255,-2.384,3.611,0.7796000000000001,0.5682,0.0217,-0.113,0.0,-0.012
1670267495.719996,-9.306000000000001,-2.196,3.693,0.7822,0.5707,0.0181,-0.07100000000000001,-0.008,0.0
1670267495.759996,-9.217,-2.2760000000000002,3.598,0.7842,0.5686,0.0183,-0.062,0.0,-0.017
1670267495.799996,-9.229000000000001,-2.297,3.556,0.7835000000000001,0.5688,0.0183,-0.043000000000000003,0.002,-0.032
1670267495.839996,-9.213000000000001,-2.34,3.676,0.7823,0.5672,0.020200000000000003,-0.06,0.006,-0.024
1670267495.879996,-9.254,-2.326,3.571,0.782,0.5695,0.019200000000000002,-0.08700000000000001,-0.008,0.0
1670267495.919996,-9.336,-2.312,3.685,0.7813,0.5695,0.0181,-0.083,-0.002,-0.002
1670267495.959996,-9.371,-2.2600000000000002,3.686,0.7798,0.5699000000000001,0.0181,-0.074,0.006,-0.005
1670267495.999996,-9.357,-2.311,3.6870000000000003,0.7831,0.5678000000000001,0.019200000000000002,-0.073,0.017,-0.003
1670267496.039996,-9.254,-2.318,3.607,0.7783,0.5689000000000001,0.019100000000000002,-0.124,0.02,-0.014
1670267496.079996,-9.242,-2.214,3.629,0.7798,0.5676,0.017400000000000002,-0.114,-0.012,-0.016
1670267496.119996,-9.312,-2.283,3.638,0.7794000000000001,0.5709000000000001,0.0196,-0.092,-0.018000000000000002,-0.002
1670267496.159996,-9.288,-2.257,3.681,0.7815000000000001,0.5681,0.0183,-0.08,-0.008,0.0
1670267496.199996,-9.264,-2.2600000000000002,3.586,0.7777000000000001,0.5695,0.0212,-0.076,-0.009000000000000001,-0.017
1670267496.239996,-9.304,-2.2800000000000002,3.665,0.7772,0.5699000000000001,0.020200000000000003,-0.076,-0.002,-0.016
1670267496.279996,-9.276,-2.2680000000000002,3.5540000000000003,0.78,0.5692,0.0188,-0.085,-0.001,-0.02
1670267496.319996,-9.223,-2.29,3.6630000000000003,0.7785000000000001,0.5653,0.0183,-0.092,-0.017,-0.016
1670267496.359996,-9.237,-2.354,3.717,0.7766000000000001,0.5689000000000001,0.019700000000000002,-0.098,-0.015,-0.02
1670267496.399996,-9.307,-2.286,3.781,0.7804,0.5707,0.0188,-0.084,-0.022,0.0
1670267496.439996,-9.306000000000001,-2.2720000000000002,3.68,0.7799,0.5670000000000001,0.021,-0.061,-0.001,0.0
1670267496.479996,-9.241,-2.257,3.694,0.7819,0.5697,0.020900000000000002,-0.046,0.017,-0.02
1670267496.519996,-9.235,-2.351,3.726,0.7798,0.5680000000000001,0.024,-0.056,0.018000000000000002,-0.026000000000000002
1670267496.559996,-9.221,-2.326,3.597,0.7806000000000001,0.5659000000000001,0.023,-0.097,-0.001,-0.014
1670267496.5999959,-9.265,-2.2840000000000003,3.701,0.7821,0.5726,0.02,-0.098,-0.007,0.006
1670267496.639996,-9.218,-2.308,3.662,0.7807000000000001,0.5700000000000001,0.0199,-0.074,-0.006,-0.01
1670267496.679996,-9.252,-2.241,3.715,0.7787000000000001,0.5653,0.0198,-0.055,0.004,-0.017
1670267496.719995,-9.26,-2.325,3.6510000000000002,0.7824,0.5681,0.0211,-0.055,0.012,-0.016
1670267496.759995,-9.246,-2.286,3.649,0.7811,0.5694,0.0218,-0.081,0.011,-0.006
1670267496.799995,-9.252,-2.2560000000000002,3.664,0.7809,0.5650000000000001,0.021400000000000002,-0.075,0.009000000000000001,0.003
1670267496.839995,-9.193,-2.235,3.642,0.7812,0.5691,0.021400000000000002,-0.066,-0.001,-0.007
1670267496.879995,-9.271,-2.2560000000000002,3.7070000000000003,0.7824,0.5682,0.0219,-0.056,0.0,-0.012
1670267496.919995,-9.259,-2.294,3.744,0.7778,0.5674,0.021400000000000002,-0.074,0.007,-0.019
1670267496.959995,-9.308,-2.316,3.6990000000000003,0.7806000000000001,0.5669000000000001,0.0216,-0.123,0.026000000000000002,-0.007
1670267496.999995,-9.197000000000001,-2.58,3.681,0.786,0.5695,0.024200000000000003,-0.274,0.067,0.032
1670267497.039995,-9.254,-2.124,3.62,0.7786000000000001,0.5698,0.016900000000000002,-0.24,0.014,0.031
1670267497.079995,-9.244,-2.31,3.608,0.781,0.5689000000000001,0.0164,-0.154,0.018000000000000002,0.009000000000000001
1670267497.119995,-9.338000000000001,-2.205,3.684,0.7844,0.5687,0.0175,-0.121,-0.003,0.019
1670267497.159995,-9.309000000000001,-2.269,3.557,0.7817000000000001,0.5691,0.0167,-0.077,0.027,0.004
1670267497.199995,-9.266,-2.315,3.602,0.7809,0.5686,0.0146,-0.08700000000000001,0.014,-0.007
1670267497.239995,-9.261000000000001,-2.253,3.581,0.7827000000000001,0.5669000000000001,0.0162,-0.093,0.016,-0.011
1670267497.279995,-9.3,-2.331,3.619,0.7832,0.5667,0.0155,-0.093,-0.005,-0.03
1670267497.319995,-9.293000000000001,-2.261,3.634,0.7824,0.5686,0.014700000000000001,-0.082,-0.016,-0.034
1670267497.359995,-9.118,-2.059,3.523,0.7833,0.5670000000000001,0.0166,0.013000000000000001,-0.056,-0.038
1670267497.3999949,-9.441,-2.479,3.762,0.781,0.5673,0.019700000000000002,0.024,-0.035,-0.04
1670267497.439995,-9.315,-2.277,3.793,0.781,0.5691,0.0182,-0.004,-0.011,-0.028
1670267497.479995,-9.185,-2.3000000000000003,3.571,0.783,0.5694,0.0172,-0.032,0.013000000000000001,-0.029
1670267497.519995,-9.265,-2.2640000000000002,3.725,0.781,0.5684,0.020200000000000003,-0.063,0.003,-0.014
1670267497.559995,-9.23,-2.2840000000000003,3.6830000000000003,0.7812,0.5660000000000001,0.021400000000000002,-0.074,0.001,-0.003
1670267497.599995,-9.237,-2.23,3.696,0.7822,0.5673,0.0216,-0.068,0.005,-0.018000000000000002
1670267497.6399949,-9.236,-2.282,3.6630000000000003,0.7827000000000001,0.5665,0.0206,-0.059000000000000004,0.007,-0.019
1670267497.679995,-9.242,-2.253,3.658,0.7791,0.5659000000000001,0.019700000000000002,-0.079,0.016,-0.015
1670267497.719995,-9.251,-2.248,3.723,0.7821,0.5703,0.0211,-0.07200000000000001,0.011,-0.01
1670267497.759995,-9.23,-2.274,3.664,0.7759,0.5669000000000001,0.022500000000000003,-0.08600000000000001,0.002,-0.015
1670267497.799995,-9.251,-2.353,3.689,0.7812,0.5679000000000001,0.019200000000000002,-0.079,0.011,-0.021
1670267497.839994,-9.283,-2.208,3.741,0.7856000000000001,0.5691,0.019,-0.093,-0.004,0.0
1670267497.879994,-9.275,-2.24,3.728,0.7816000000000001,0.5693,0.019700000000000002,-0.067,0.012,0.002
1670267497.919994,-9.224,-2.183,3.678,0.7788,0.5656,0.0187,-0.051000000000000004,0.015,-0.01
1670267497.959994,-9.223,-2.258,3.602,0.7835000000000001,0.5702,0.0178,-0.053,0.029,-0.031
1670267497.999994,-9.244,-2.3000000000000003,3.684,0.782,0.5689000000000001,0.0211,-0.077,0.011,-0.024
1670267498.039994,-9.287,-2.2600000000000002,3.705,0.7786000000000001,0.5678000000000001,0.0054,-0.097,-0.006,-0.009000000000000001
1670267498.079994,-9.296,-2.318,3.751,0.7845000000000001,0.5687,0.0167,-0.094,0.003,-0.02
1670267498.119994,-9.296,-2.227,3.754,0.7845000000000001,0.5681,0.022000000000000002,-0.066,0.01,-0.019
1670267498.159994,-9.25,-2.271,3.6310000000000002,0.7811,0.5635,0.019200000000000002,-0.049,0.027,-0.022
1670267498.1999938,-9.261000000000001,-2.271,3.6310000000000002,0.7782,0.5635,0.019200000000000002,-0.056,0.037,-0.006
1670267498.239994,-9.328,-2.287,3.722,0.783,0.5673,0.014700000000000001,-0.057,0.012,-0.004
1670267498.279994,-9.332,-2.249,3.757,0.7669,0.5652,0.0485,-0.049,0.007,-0.003
1670267498.319994,-9.221,-2.1630000000000003,3.599,0.7789,0.5653,-0.0025,-0.031,0.016,-0.036000000000000004
1670267498.359994,-9.200000000000001,-2.187,3.504,0.7784000000000001,0.5653,0.0228,-0.044,0.018000000000000002,-0.036000000000000004
1670267498.399994,-9.261000000000001,-2.2920000000000003,3.568,0.7795000000000001,0.5683,0.0227,-0.081,0.007,-0.033
1670267498.4399939,-9.321,-2.27,3.68,0.777,0.5681,0.0117,-0.098,-0.004,-0.018000000000000002
1670267498.479994,-9.263,-2.2840000000000003,3.684,0.7817000000000001,0.5684,0.0189,-0.098,0.002,-0.033
1670267498.519994,-9.251,-2.289,3.656,0.7814,0.5677,0.0235,-0.088,0.009000000000000001,-0.044
1670267498.559994,-9.269,-2.358,3.653,0.7805000000000001,0.5677,0.0238,-0.098,0.012,-0.044
1670267498.599994,-9.226,-2.3040000000000003,3.593,0.7843,0.5699000000000001,0.0189,-0.074,0.013000000000000001,0.0
1670267498.639994,-9.346,-2.2800000000000002,3.701,0.7826000000000001,0.5676,0.0173,-0.052000000000000005,0.014,-0.002
1670267498.6799939,-9.266,-2.261,3.62,0.7795000000000001,0.5668000000000001,0.019200000000000002,-0.052000000000000005,0.028,-0.017
1670267498.719994,-9.236,-2.3040000000000003,3.623,0.7815000000000001,0.5672,0.0182,-0.052000000000000005,0.019,-0.022
1670267498.759994,-9.208,-2.348,3.565,0.7794000000000001,0.5669000000000001,0.0207,-0.096,0.01,-0.004
1670267498.799994,-9.303,-2.274,3.68,0.7857000000000001,0.5644,0.0184,-0.101,0.009000000000000001,0.002
1670267498.839994,-9.255,-2.267,3.625,0.7792,0.5660000000000001,0.0189,-0.083,0.008,-0.007
1670267498.879993,-9.281,-2.194,3.6990000000000003,0.7808,0.5672,0.0206,-0.068,0.012,-0.01
1670267498.919993,-9.279,-2.249,3.613,0.765,0.5646,0.0267,-0.066,0.02,-0.012
1670267498.959993,-9.248,-2.242,3.555,0.7826000000000001,0.5668000000000001,0.0183,-0.078,0.012,-0.006
1670267498.9999928,-9.276,-2.229,3.646,0.7795000000000001,0.5696,0.0239,-0.082,0.006,-0.001
1670267499.039993,-9.328,-2.2520000000000002,3.598,0.7819,0.5691,0.0183,-0.078,0.001,-0.016
1670267499.079993,-9.295,-2.2520000000000002,3.628,0.7791,0.5672,0.0199,-0.083,0.006,-0.021
1670267499.119993,-9.26,-2.248,3.61,0.782,0.5672,0.0172,-0.085,0.002,-0.021
1670267499.159993,-9.251,-2.2880000000000003,3.56,0.7808,0.5697,0.022500000000000003,-0.08700000000000001,-0.001,-0.019
1670267499.199993,-9.266,-2.262,3.599,0.7836000000000001,0.5674,0.0176,-0.09,-0.001,-0.025
1670267499.2399929,-9.265,-2.2720000000000002,3.613,0.784,0.5688,0.020200000000000003,-0.08600000000000001,-0.005,-0.015
1670267499.279993,-9.24,-2.374,3.637,0.7827000000000001,0.5669000000000001,0.0212,-0.089,-0.009000000000000001,-0.023
1670267499.319993,-9.301,-2.216,3.71,0.7815000000000001,0.5673,0.020900000000000002,-0.062,-0.003,0.003
1670267499.359993,-9.257,-2.281,3.622,0.7822,0.5657,0.0205,-0.058,0.018000000000000002,-0.01
1670267499.399993,-9.25,-2.231,3.656,0.7802,0.5697,0.0244,-0.057,0.027,-0.031
1670267499.439993,-9.221,-2.308,3.544,0.7821,0.5680000000000001,0.0211,-0.073,0.016,-0.021
1670267499.4799929,-9.3,-2.318,3.66,0.7839,0.5684,0.020300000000000002,-0.094,-0.007,0.0
1670267499.519993,-9.263,-2.217,3.657,0.7812,0.5661,0.0223,-0.088,0.0,-0.017
1670267499.559993,-9.293000000000001,-2.244,3.6830000000000003,0.7786000000000001,0.5675,0.0189,-0.066,0.001,-0.014
1670267499.599993,-9.264,-2.266,3.626,0.7803,0.5690000000000001,0.020300000000000002,-0.068,0.005,-0.017
1670267499.639993,-9.298,-2.3000000000000003,3.7,0.7804,0.5650000000000001,0.022000000000000002,-0.08,0.012,-0.011
1670267499.679993,-9.279,-2.242,3.5700000000000003,0.7804,0.5675,0.019700000000000002,-0.083,0.011,-0.004
1670267499.7199929,-9.287,-2.2560000000000002,3.6670000000000003,0.7835000000000001,0.5691,0.0189,-0.079,0.009000000000000001,-0.013000000000000001
1670267499.759993,-9.253,-2.235,3.5700000000000003,0.7781,0.5668000000000001,0.0224,-0.076,0.008,-0.021
1670267499.799993,-9.276,-2.232,3.629,0.7795000000000001,0.5668000000000001,0.019700000000000002,-0.047,0.02,-0.014
1670267499.839993,-9.336,-2.182,3.682,0.7831,0.5705,0.02,0.047,0.107,-0.002
1670267499.879993,-9.164,-2.33,3.4410000000000003,0.7851,0.5684,0.0201,-0.03,0.02,-0.009000000000000001
1670267499.919992,-9.255,-2.231,3.47,0.7826000000000001,0.5663,0.0159,-0.063,0.019,-0.013000000000000001
1670267499.959992,-9.306000000000001,-2.22,3.598,0.7833,0.5656,0.0165,-0.07100000000000001,0.002,-0.02
1670267499.999992,-9.292,-2.34,3.59,0.7852,0.5684,0.0207,-0.083,0.002,-0.03
1670267500.0399919,-9.295,-2.195,3.573,0.7801,0.5672,0.018000000000000002,-0.122,-0.057,-0.009000000000000001
1670267500.079992,-9.183,-2.183,3.478,0.7841,0.5670000000000001,0.018000000000000002,-0.146,-0.081,-0.03
1670267500.119992,-9.379,-2.204,3.58,0.7815000000000001,0.5670000000000001,0.0205,-0.093,0.002,-0.027
1670267500.159992,-9.225,-2.247,3.6590000000000003,0.7807000000000001,0.5666,0.0216,-0.091,0.005,-0.045
1670267500.199992,-9.278,-2.32,3.575,0.7841,0.5679000000000001,0.019700000000000002,-0.094,-0.02,-0.016
1670267500.239992,-9.233,-2.2600000000000002,3.672,0.7853,0.5688,0.0178,-0.088,-0.013000000000000001,-0.028
1670267500.2799919,-9.244,-2.249,3.694,0.7808,0.5678000000000001,0.020300000000000002,-0.076,-0.017,-0.016
1670267500.319992,-9.227,-2.2600000000000002,3.665,0.7821,0.5686,0.0213,-0.061,-0.003,-0.021
1670267500.359992,-9.246,-2.299,3.661,0.7814,0.5687,0.021500000000000002,-0.065,0.003,-0.019
1670267500.399992,-9.261000000000001,-2.302,3.681,0.7812,0.5675,0.020900000000000002,-0.081,0.014,-0.009000000000000001
1670267500.439992,-9.278,-2.271,3.652,0.7796000000000001,0.5657,0.023,-0.082,0.012,0.0
1670267500.479992,-9.244,-2.254,3.588,0.7832,0.5680000000000001,0.022600000000000002,-0.082,0.022,-0.007
1670267500.5199919,-9.290000000000001,-2.254,3.678,0.7822,0.5659000000000001,0.0199,-0.078,0.013000000000000001,-0.014
1670267500.559992,-9.261000000000001,-2.274,3.6590000000000003,0.7857000000000001,0.5675,0.0223,-0.075,0.011,-0.016
1670267500.599992,-9.287,-2.249,3.6310000000000002,0.7831,0.5675,0.020300000000000002,-0.08,0.007,-0.017
1670267500.639992,-9.267,-2.278,3.572,0.78,0.5683,0.0198,-0.083,0.003,-0.022
1670267500.679992,-9.348,-2.251,3.73,0.7781,0.5666,0.0227,-0.084,-0.007,-0.018000000000000002
1670267500.719992,-9.179,-2.371,3.552,0.782,0.5684,0.0199,-0.08600000000000001,-0.002,-0.032
1670267500.759992,-9.285,-2.161,3.689,0.7801,0.5687,0.024900000000000002,-0.073,-0.014,0.003
1670267500.799992,-9.268,-2.319,3.64,0.7804,0.5683,0.02,-0.058,-0.002,-0.003
1670267500.839992,-9.248,-2.241,3.694,0.783,0.5677,0.022600000000000002,-0.059000000000000004,0.027,-0.029
1670267500.879992,-9.255,-2.317,3.6790000000000003,0.7799,0.5692,0.027100000000000003,-0.079,0.026000000000000002,-0.021
1670267500.919992,-9.247,-2.338,3.626,0.7809,0.5661,0.0204,-0.11,0.017,0.005
1670267500.959991,-9.275,-2.2880000000000003,3.6630000000000003,0.7809,0.5680000000000001,0.0206,-0.10200000000000001,0.013000000000000001,0.004
1670267500.999991,-9.289,-2.2,3.65,0.781,0.5694,0.0221,-0.082,0.008,-0.007
1670267501.039991,-9.273,-2.253,3.644,0.7794000000000001,0.5672,0.0201,-0.053,0.019,-0.007
1670267501.0799909,-9.259,-2.251,3.653,0.7826000000000001,0.5695,0.0224,-0.053,0.017,-0.009000000000000001
1670267501.119991,-9.251,-2.2680000000000002,3.577,0.7843,0.5683,0.022000000000000002,-0.068,0.015,-0.003
1670267501.159991,-9.294,-2.269,3.653,0.7811,0.5675,0.020900000000000002,-0.083,0.011,-0.003
1670267501.199991,-9.323,-2.248,3.698,0.7842,0.5680000000000001,0.02,-0.077,0.01,-0.008
1670267501.239991,-9.281,-2.237,3.628,0.784,0.5688,0.0233,-0.074,0.009000000000000001,-0.019
1670267501.279991,-9.3,-2.245,3.654,0.7809,0.5670000000000001,0.021500000000000002,-0.081,0.007,-0.016
1670267501.3199909,-9.238,-2.238,3.619,0.7814,0.5695,0.0211,-0.084,0.008,-0.011
1670267501.359991,-9.267,-2.2680000000000002,3.6430000000000002,0.7785000000000001,0.5692,0.020300000000000002,-0.077,0.01,-0.015
1670267501.399991,-9.237,-2.245,3.5660000000000003,0.7839,0.5679000000000001,0.019100000000000002,-0.078,0.013000000000000001,-0.011
1670267501.439991,-9.301,-2.259,3.649,0.786,0.5665,0.0188,-0.095,-0.001,-0.013000000000000001
1670267501.479991,-9.39,-2.1750000000000003,3.746,0.7853,0.5698,0.0224,-0.074,0.002,0.015
1670267501.519991,-9.289,-2.202,3.613,0.782,0.5677,0.0193,-0.06,0.015,-0.003
1670267501.559991,-9.224,-2.254,3.549,0.7833,0.5648000000000001,0.019200000000000002,-0.056,0.032,-0.035
1670267501.599991,-9.261000000000001,-2.269,3.5580000000000003,0.781,0.5666,0.0053,-0.078,0.01,-0.016
1670267501.639991,-9.288,-2.208,3.593,0.7794000000000001,0.5652,0.0173,-0.10300000000000001,0.0,0.005
1670267501.679991,-9.322000000000001,-2.212,3.599,0.7723,0.5670000000000001,0.0325,-0.092,-0.007,-0.008
1670267501.719991,-9.322000000000001,-2.19,3.658,0.7723,0.5692,0.0061,-0.075,0.001,-0.014
1670267501.759991,-9.276,-2.19,3.644,0.7799,0.5692,0.0234,-0.069,0.016,-0.02
1670267501.799991,-9.298,-2.241,3.644,0.7685000000000001,0.5628000000000001,0.0234,-0.075,0.013000000000000001,-0.011
1670267501.839991,-9.269,-2.25,3.592,0.7793,0.5656,0.0007,-0.077,0.007,-0.009000000000000001
1670267501.879991,-9.275,-2.23,3.565,0.7846000000000001,0.5668000000000001,0.026000000000000002,-0.07200000000000001,0.0,-0.013000000000000001
1670267501.919991,-9.296,-2.199,3.587,0.7835000000000001,0.5664,0.042800000000000005,-0.079,0.008,-0.02
1670267501.959991,-9.291,-2.214,3.595,0.7815000000000001,0.5663,0.0099,-0.074,0.002,-0.022
1670267501.99999,-9.302,-2.247,3.628,0.7848,0.5663,0.02,-0.091,0.0,-0.016
1670267502.03999,-9.284,-2.245,3.612,0.7796000000000001,0.5667,0.020900000000000002,-0.08600000000000001,0.003,-0.017
1670267502.07999,-9.247,-2.241,3.59,0.7824,0.5670000000000001,0.017400000000000002,-0.078,0.0,-0.017
1670267502.1199899,-9.305,-2.224,3.605,0.7854,0.5681,0.018600000000000002,-0.076,0.0,-0.022
1670267502.15999,-9.277000000000001,-2.33,3.6310000000000002,0.7851,0.5683,0.0187,-0.078,-0.012,0.0
1670267502.19999,-9.344,-2.141,3.672,0.783,0.5685,0.0187,-0.067,0.02,-0.003
1670267502.23999,-9.271,-2.274,3.59,0.7831,0.5667,0.0217,-0.061,0.024,-0.021
1670267502.27999,-9.221,-2.236,3.595,0.7778,0.5653,0.0245,-0.075,0.015,-0.026000000000000002
1670267502.31999,-9.267,-2.291,3.5660000000000003,0.7821,0.5649000000000001,0.0194,-0.097,-0.008,0.001
1670267502.35999,-9.362,-2.223,3.673,0.7812,0.5670000000000001,0.0235,-0.099,-0.006,0.0
1670267502.39999,-9.293000000000001,-2.235,3.6430000000000002,0.7817000000000001,0.5677,0.0212,-0.066,0.0,-0.008
1670267502.43999,-9.26,-2.193,3.628,0.7663000000000001,0.5611,0.028,-0.052000000000000005,0.002,-0.017
1670267502.47999,-9.265,-2.251,3.594,0.7763,0.5650000000000001,0.0213,-0.062,0.012,-0.016
1670267502.51999,-9.302,-2.247,3.595,0.7799,0.5677,0.0223,-0.073,0.007,0.0
1670267502.55999,-9.378,-2.25,3.74,0.7843,0.5669000000000001,0.0195,-0.15,0.056,0.013000000000000001
1670267502.59999,-9.224,-2.505,3.641,0.7851,0.5678000000000001,0.018000000000000002,-0.229,0.02,0.037
1670267502.63999,-9.312,-2.0260000000000002,3.565,0.7864,0.5681,0.0181,-0.161,0.005,0.003
1670267502.67999,-9.292,-2.216,3.521,0.7856000000000001,0.5677,0.0162,-0.101,-0.001,-0.007
1670267502.71999,-9.307,-2.193,3.561,0.7878000000000001,0.5684,0.0162,-0.085,0.004,-0.015
1670267502.75999,-9.318,-2.259,3.591,0.7838,0.5688,0.0142,-0.074,-0.001,-0.018000000000000002
1670267502.79999,-9.34,-2.249,3.568,0.7843,0.5682,0.0173,-0.081,-0.009000000000000001,-0.013000000000000001
1670267502.83999,-9.262,-2.299,3.509,0.7844,0.5694,0.018000000000000002,-0.08600000000000001,-0.024,-0.014
1670267502.87999,-9.347,-2.126,3.646,0.7835000000000001,0.5675,0.0175,-0.074,-0.004,0.009000000000000001
1670267502.91999,-9.221,-2.207,3.559,0.7826000000000001,0.5691,0.018500000000000003,-0.045,-0.023,-0.016
1670267502.95999,-9.338000000000001,-2.271,3.645,0.7824,0.5655,0.019200000000000002,-0.014,0.005,-0.032
1670267502.99999,-9.081,-1.999,3.524,0.7859,0.5670000000000001,0.019700000000000002,0.066,-0.093,-0.096
1670267503.039989,-9.372,-2.438,3.629,0.7856000000000001,0.5666,0.0246,-0.029,-0.022,-0.014
1670267503.079989,-9.223,-2.216,3.753,0.7838,0.5678000000000001,0.0238,-0.059000000000000004,0.019,-0.025
1670267503.119989,-9.281,-2.243,3.622,0.7825000000000001,0.5661,0.023,-0.074,-0.003,-0.014
1670267503.1599889,-9.322000000000001,-2.241,3.702,0.782,0.5661,0.0258,-0.068,0.021,-0.023
1670267503.199989,-9.276,-2.2560000000000002,3.629,0.7818,0.5652,0.023100000000000002,-0.074,0.026000000000000002,-0.024
1670267503.239989,-9.304,-2.242,3.672,0.7826000000000001,0.5678000000000001,0.0198,-0.075,0.016,-0.013000000000000001
1670267503.279989,-9.259,-2.226,3.598,0.7808,0.5680000000000001,0.0178,-0.075,0.012,-0.006
1670267503.319989,-9.257,-2.229,3.568,0.7845000000000001,0.5676,0.0199,-0.083,0.011,-0.021
1670267503.359989,-9.269,-2.22,3.59,0.7832,0.5686,0.0224,-0.081,0.014,-0.019
1670267503.399989,-9.28,-2.22,3.613,0.7831,0.5668000000000001,0.020800000000000003,-0.08,0.01,-0.017
1670267503.439989,-9.301,-2.247,3.588,0.7838,0.5671,0.0227,-0.08600000000000001,0.013000000000000001,-0.02
1670267503.479989,-9.282,-2.25,3.628,0.7831,0.5689000000000001,0.0204,-0.089,0.001,-0.015
1670267503.519989,-9.218,-2.331,3.641,0.7835000000000001,0.5689000000000001,0.022500000000000003,-0.099,0.0,-0.027
1670267503.559989,-9.275,-2.206,3.684,0.7817000000000001,0.5686,0.0213,-0.091,-0.01,-0.004
1670267503.599989,-9.269,-2.22,3.63,0.7848,0.5675,0.020800000000000003,-0.057,0.016,-0.003
1670267503.639989,-9.235,-2.172,3.572,0.7853,0.5684,0.0219,-0.05,0.028,-0.02
1670267503.679989,-9.272,-2.277,3.599,0.7867000000000001,0.5691,0.0184,-0.07,0.021,-0.03
1670267503.719989,-9.271,-2.2920000000000003,3.602,0.7823,0.5689000000000001,0.0189,-0.092,0.012,-0.008
1670267503.759989,-9.293000000000001,-2.232,3.694,0.7833,0.5674,0.0205,-0.1,0.003,-0.003
1670267503.799989,-9.285,-2.219,3.614,0.7703,0.5629000000000001,0.0303,-0.075,0.003,-0.01
1670267503.839989,-9.294,-2.201,3.622,0.7844,0.5676,0.022600000000000002,-0.065,0.015,-0.021
1670267503.879989,-9.294,-2.251,3.6310000000000002,0.7821,0.5664,0.020200000000000003,-0.062,0.017,-0.02
1670267503.919989,-9.291,-2.254,3.571,0.7835000000000001,0.5673,0.0207,-0.078,0.016,-0.008
1670267503.959989,-9.281,-2.231,3.6430000000000002,0.7868,0.5679000000000001,0.0199,-0.094,0.01,-0.002
1670267503.999989,-9.298,-2.19,3.583,0.7847000000000001,0.5676,0.0205,-0.081,0.004,-0.013000000000000001
1670267504.039989,-9.314,-2.226,3.6550000000000002,0.7839,0.5684,0.0205,-0.068,0.012,-0.024
1670267504.079988,-9.286,-2.247,3.589,0.7856000000000001,0.5674,0.020900000000000002,-0.073,0.009000000000000001,-0.024
1670267504.119988,-9.283,-2.258,3.616,0.7843,0.5675,0.0205,-0.078,0.0,-0.016
1670267504.159988,-9.269,-2.254,3.575,0.7843,0.5682,0.0178,-0.084,0.003,-0.016
1670267504.199988,-9.272,-2.243,3.569,0.7859,0.5697,0.0204,-0.08,0.005,-0.018000000000000002
1670267504.239988,-9.235,-2.251,3.5700000000000003,0.7847000000000001,0.5703,0.019200000000000002,-0.081,-0.01,-0.002
1670267504.279988,-9.379,-2.174,3.7520000000000002,0.7862,0.5656,0.0198,-0.066,0.003,0.001
1670267504.319988,-9.338000000000001,-2.221,3.66,0.7856000000000001,0.5688,0.019700000000000002,-0.056,0.014,-0.007
1670267504.359988,-9.267,-2.258,3.5580000000000003,0.7851,0.5679000000000001,0.0217,-0.052000000000000005,0.031,-0.035
1670267504.399988,-9.323,-2.314,3.6830000000000003,0.7835000000000001,0.5689000000000001,0.0188,-0.089,0.016,-0.023
1670267504.439988,-9.318,-2.229,3.649,0.7842,0.5708,0.020200000000000003,-0.107,-0.003,0.003
1670267504.479988,-9.288,-2.243,3.565,0.785,0.5674,0.018600000000000002,-0.093,0.002,-0.008
1670267504.519988,-9.309000000000001,-2.178,3.6630000000000003,0.7854,0.5680000000000001,0.0224,-0.065,0.011,-0.017
1670267504.559988,-9.275,-2.236,3.583,0.785,0.5681,0.023,-0.068,0.013000000000000001,-0.014
1670267504.599988,-9.291,-2.254,3.537,0.7833,0.5688,0.020300000000000002,-0.075,0.022,-0.014
1670267504.639988,-9.299,-2.224,3.625,0.7824,0.5712,0.0213,-0.081,0.012,-0.005
1670267504.679988,-9.287,-2.193,3.572,0.7889,0.5674,0.0187,-0.078,0.009000000000000001,-0.013000000000000001
1670267504.719988,-9.317,-2.227,3.576,0.7849,0.5703,0.0184,-0.082,0.01,-0.019
1670267504.759988,-9.296,-2.231,3.581,0.7855000000000001,0.5681,0.0183,-0.078,0.009000000000000001,-0.016
1670267504.799988,-9.314,-2.242,3.622,0.7864,0.5699000000000001,0.0205,-0.094,0.006,-0.023
1670267504.839988,-9.277000000000001,-2.254,3.5420000000000003,0.786,0.5663,0.019700000000000002,-0.085,0.007,-0.02
1670267504.879988,-9.312,-2.233,3.556,0.7844,0.5687,0.019100000000000002,-0.078,0.0,-0.02
1670267504.919988,-9.263,-2.324,3.6470000000000002,0.7862,0.5686,0.0194,-0.082,0.002,-0.028
1670267504.959988,-9.356,-2.1590000000000003,3.61,0.7864,0.5686,0.019100000000000002,-0.082,-0.002,0.0
1670267504.999988,-9.288,-2.316,3.569,0.784,0.5700000000000001,0.0176,-0.061,0.009000000000000001,-0.002
1670267505.039988,-9.213000000000001,-2.191,3.529,0.7854,0.5670000000000001,0.020800000000000003,-0.063,0.018000000000000002,-0.02
1670267505.079988,-9.236,-2.3000000000000003,3.512,0.7862,0.5681,0.0178,-0.076,0.01,-0.023
1670267505.119987,-9.334,-2.253,3.602,0.7768,0.5618000000000001,0.0303,-0.091,-0.01,0.0
1670267505.159987,-9.267,-2.266,3.62,0.7871,0.5694,0.0261,-0.091,-0.003,-0.02
1670267505.199987,-9.278,-2.211,3.646,0.7818,0.5674,0.0361,-0.074,0.003,-0.022
1670267505.239987,-9.314,-2.269,3.6310000000000002,0.7792,0.5702,0.027800000000000002,-0.054,0.002,-0.018000000000000002
1670267505.279987,-9.314,-2.2720000000000002,3.577,0.7792,0.5694,0.0229,-0.061,0.013000000000000001,-0.011
1670267505.319987,-9.354000000000001,-2.2720000000000002,3.815,0.7822,0.5694,0.0018000000000000002,0.008,0.056,0.027
1670267505.359987,-9.482,-2.075,3.815,0.785,0.5686,0.0018000000000000002,0.063,0.111,-0.012
1670267505.399987,-9.177,-2.3850000000000002,3.383,0.7837000000000001,0.5674,0.028200000000000003,-0.053,0.011,-0.026000000000000002
1670267505.439987,-9.354000000000001,-2.1390000000000002,3.589,0.7831,0.5668000000000001,0.041800000000000004,-0.066,0.011,-0.032
1670267505.479987,-9.311,-2.218,3.469,0.7871,0.5670000000000001,0.028900000000000002,-0.062,0.0,-0.031
1670267505.519987,-9.352,-2.1550000000000002,3.464,0.7867000000000001,0.5691,0.0178,-0.041,0.006,-0.029
1670267505.559987,-9.312,-2.213,3.541,0.7818,0.5666,0.0221,-0.059000000000000004,0.004,-0.028
1670267505.599987,-9.306000000000001,-2.22,3.531,0.782,0.5672,0.0219,-0.06,-0.005,-0.027
1670267505.639987,-9.3,-2.247,3.5020000000000002,0.7859,0.5693,0.0316,-0.077,-0.016,-0.026000000000000002
1670267505.679987,-9.306000000000001,-2.236,3.598,0.7824,0.5666,0.0229,-0.068,-0.026000000000000002,0.0
1670267505.719987,-9.354000000000001,-2.126,3.604,0.7836000000000001,0.5695,0.0261,-0.056,-0.026000000000000002,-0.012
1670267505.759987,-9.318,-2.186,3.56,0.7887000000000001,0.5673,0.0201,-0.061,-0.006,-0.035
1670267505.799987,-9.304,-2.271,3.575,0.7701,0.5619000000000001,0.0302,-0.113,-0.012,-0.041
1670267505.839987,-9.103,-2.351,3.467,0.7845000000000001,0.5699000000000001,0.0213,-0.23600000000000002,-0.116,-0.051000000000000004
1670267505.879987,-9.515,-2.211,3.7560000000000002,0.7813,0.5681,0.0218,-0.138,0.0,-0.008
1670267505.919987,-9.248,-2.2680000000000002,3.668,0.7831,0.5702,0.0233,-0.091,0.008,-0.01
1670267505.959987,-9.285,-2.17,3.724,0.7838,0.5707,0.0221,-0.064,0.014,-0.015
1670267505.999987,-9.271,-2.262,3.657,0.7843,0.5699000000000001,0.020800000000000003,-0.057,0.021,-0.007
1670267506.0399868,-9.276,-2.281,3.642,0.7849,0.5695,0.022500000000000003,-0.069,0.014,0.001
1670267506.079987,-9.252,-2.273,3.54,0.7865000000000001,0.5714,0.0221,-0.079,0.011,0.001
1670267506.119987,-9.279,-2.228,3.548,0.7849,0.5702,0.0216,-0.08,0.016,-0.003
1670267506.159986,-9.292,-2.229,3.5780000000000003,0.7871,0.5688,0.0217,-0.07200000000000001,0.017,-0.015
1670267506.199986,-9.32,-2.2720000000000002,3.607,0.7856000000000001,0.5697,0.0227,-0.081,0.017,-0.019
1670267506.239986,-9.268,-2.2520000000000002,3.528,0.7842,0.5709000000000001,0.0199,-0.091,0.012,-0.014
1670267506.279986,-9.297,-2.254,3.638,0.7856000000000001,0.5695,0.0227,-0.089,0.0,-0.011
1670267506.319986,-9.276,-2.23,3.571,0.7845000000000001,0.5695,0.020900000000000002,-0.082,-0.001,-0.015
1670267506.359986,-9.319,-2.266,3.59,0.7829,0.5679000000000001,0.0228,-0.074,0.007,-0.017
1670267506.399986,-9.255,-2.285,3.628,0.7848,0.5681,0.0216,-0.083,-0.001,0.001
1670267506.439986,-9.327,-2.1390000000000002,3.6630000000000003,0.7732,0.5677,0.0263,-0.061,0.008,0.004
1670267506.479986,-9.278,-2.18,3.532,0.7854,0.5690000000000001,0.0205,-0.052000000000000005,0.019,-0.007
1670267506.519986,-9.266,-2.242,3.581,0.7883,0.5687,0.0198,-0.067,0.032,-0.03
1670267506.559986,-9.299,-2.29,3.614,0.7878000000000001,0.5697,0.0258,-0.092,0.013000000000000001,-0.015
1670267506.599986,-9.348,-2.259,3.661,0.787,0.5694,0.0217,-0.107,0.004,-0.003
1670267506.639986,-9.309000000000001,-2.259,3.65,0.7856000000000001,0.5689000000000001,0.021400000000000002,-0.096,0.001,-0.011
1670267506.679986,-9.328,-2.174,3.65,0.786,0.5681,0.0235,-0.065,0.01,-0.017
1670267506.719986,-9.3,-2.202,3.507,0.7875000000000001,0.5697,0.0244,-0.056,0.012,-0.015
1670267506.759986,-9.328,-2.25,3.552,0.787,0.5680000000000001,0.0198,-0.07200000000000001,0.019,-0.006
1670267506.799986,-9.296,-2.241,3.575,0.7862,0.5699000000000001,0.021500000000000002,-0.08700000000000001,0.011,-0.005
1670267506.8399858,-9.305,-2.222,3.59,0.7878000000000001,0.5703,0.019700000000000002,-0.078,0.001,0.0
1670267506.879986,-9.324,-2.212,3.545,0.7862,0.5685,0.020900000000000002,-0.076,0.005,-0.014
1670267506.919986,-9.322000000000001,-2.207,3.543,0.7861,0.5689000000000001,0.023100000000000002,-0.082,0.011,-0.013000000000000001
1670267506.959986,-9.31,-2.266,3.599,0.7845000000000001,0.5652,0.0239,-0.08700000000000001,0.003,-0.019
1670267506.999986,-9.264,-2.211,3.541,0.7857000000000001,0.5700000000000001,0.020300000000000002,-0.08700000000000001,0.0,-0.01
1670267507.039986,-9.328,-2.2520000000000002,3.596,0.7876000000000001,0.5693,0.0213,-0.094,0.005,-0.01
1670267507.0799859,-9.338000000000001,-2.204,3.571,0.7854,0.5681,0.018000000000000002,-0.089,0.012,-0.007
1670267507.119986,-9.227,-2.269,3.525,0.7878000000000001,0.5681,0.0204,-0.083,0.006,-0.014
1670267507.159986,-9.368,-2.196,3.638,0.7881,0.5704,0.0206,-0.07200000000000001,-0.006,0.014
1670267507.199986,-9.4,-2.238,3.614,0.7865000000000001,0.5668000000000001,0.02,-0.066,0.025,0.003
1670267507.239986,-9.361,-2.156,3.66,0.7889,0.5667,0.0213,-0.056,0.032,-0.023
1670267507.279985,-9.288,-2.277,3.549,0.7871,0.5700000000000001,0.0217,-0.073,0.013000000000000001,-0.03
1670267507.319985,-9.297,-2.2680000000000002,3.505,0.7853,0.5677,0.0219,-0.111,0.002,-0.015
1670267507.359985,-9.341000000000001,-2.1670000000000003,3.59,0.7843,0.5681,0.019100000000000002,-0.10200000000000001,-0.008,-0.012
1670267507.399985,-9.338000000000001,-2.23,3.657,0.7858,0.5674,0.0195,-0.092,-0.009000000000000001,-0.019
1670267507.439985,-9.276,-2.204,3.532,0.7868,0.5700000000000001,0.0195,-0.059000000000000004,0.004,-0.022
1670267507.479985,-9.326,-2.25,3.612,0.7867000000000001,0.5681,0.0235,-0.07100000000000001,0.009000000000000001,-0.011
1670267507.519985,-9.3,-2.232,3.565,0.7848,0.5684,0.0217,-0.082,0.01,-0.008
1670267507.559985,-9.302,-2.217,3.527,0.787,0.5672,0.019700000000000002,-0.079,0.008,-0.012
1670267507.599985,-9.324,-2.238,3.611,0.7851,0.5687,0.0213,-0.077,0.006,-0.018000000000000002
1670267507.6399848,-9.333,-2.23,3.543,0.788,0.5675,0.0205,-0.081,0.002,-0.018000000000000002
1670267507.679985,-9.288,-2.218,3.505,0.7864,0.5664,0.0201,-0.08600000000000001,0.0,-0.02
1670267507.719985,-9.3,-2.2520000000000002,3.593,0.7872,0.5688,0.021,-0.088,0.001,-0.016
1670267507.759985,-9.326,-2.242,3.587,0.7875000000000001,0.5688,0.0194,-0.082,0.003,-0.016
1670267507.799985,-9.290000000000001,-2.199,3.555,0.784,0.5684,0.016900000000000002,-0.07200000000000001,-0.007,-0.016
1670267507.839985,-9.282,-2.271,3.559,0.7853,0.5669000000000001,0.019100000000000002,-0.07200000000000001,0.0,-0.022
1670267507.8799849,-9.291,-2.238,3.565,0.7838,0.5670000000000001,0.0175,-0.068,-0.005,-0.019
1670267507.919985,-9.27,-2.329,3.614,0.785,0.5672,0.0206,-0.076,-0.009000000000000001,-0.013000000000000001
1670267507.959985,-9.388,-2.179,3.608,0.7801,0.5691,0.019,-0.07100000000000001,-0.011,0.002
1670267507.999985,-9.321,-2.254,3.523,0.7838,0.5680000000000001,0.019200000000000002,-0.062,0.008,-0.003
1670267508.039985,-9.263,-2.205,3.603,0.7853,0.5697,0.0246,-0.06,0.024,-0.032
1670267508.079985,-9.245000000000001,-2.289,3.5220000000000002,0.7866000000000001,0.5688,0.019100000000000002,-0.088,0.01,-0.023
1670267508.1199849,-9.387,-2.317,3.605,0.7838,0.5692,0.0216,-0.10300000000000001,0.004,-0.006
1670267508.159985,-9.209,-2.416,3.509,0.7854,0.5678000000000001,0.0182,-0.227,0.06,0.02
1670267508.199985,-9.339,-2.105,3.696,0.785,0.5699000000000001,0.0173,-0.17300000000000001,0.017,0.007
1670267508.239985,-9.355,-2.297,3.583,0.7877000000000001,0.5706,0.0166,-0.093,0.0,-0.002
1670267508.279985,-9.359,-2.2560000000000002,3.495,0.7848,0.5688,0.0166,-0.074,0.024,-0.005
1670267508.319984,-9.329,-2.2600000000000002,3.575,0.7846000000000001,0.5693,0.0173,-0.077,0.019,-0.008
1670267508.359984,-9.297,-2.238,3.4330000000000003,0.7866000000000001,0.5665,0.0183,-0.066,0.01,-0.003
1670267508.399984,-9.341000000000001,-2.202,3.5,0.789,0.5675,0.0189,-0.073,0.005,-0.007
1670267508.4399838,-9.285,-2.223,3.428,0.7872,0.5668000000000001,0.017,-0.067,-0.001,-0.026000000000000002
1670267508.479984,-9.301,-2.237,3.458,0.7843,0.5684,0.0182,-0.081,0.0,-0.021
1670267508.519984,-9.339,-2.231,3.496,0.7836000000000001,0.5675,0.0177,-0.084,-0.001,-0.026000000000000002
1670267508.559984,-9.353,-2.221,3.503,0.7869,0.5685,0.016,-0.088,-0.011,-0.016
1670267508.599984,-9.186,-1.977,3.4130000000000003,0.7859,0.5679000000000001,0.015700000000000002,-0.029,-0.028,-0.01
1670267508.639984,-9.516,-2.435,3.7,0.787,0.5655,0.0256,0.024,-0.043000000000000003,-0.056
1670267508.6799839,-9.287,-2.161,3.599,0.784,0.5687,0.018500000000000003,-0.017,-0.004,-0.027
1670267508.719984,-9.138,-2.371,3.498,0.784,0.5697,0.022600000000000002,-0.07,0.017,-0.032
1670267508.759984,-9.377,-2.199,3.634,0.7848,0.5655,0.0358,-0.091,-0.015,-0.003
1670267508.799984,-9.317,-2.222,3.572,0.7854,0.5662,0.0427,-0.079,0.003,0.012
1670267508.839984,-9.288,-2.1550000000000002,3.61,0.7835000000000001,0.5678000000000001,0.0023,-0.062,0.018000000000000002,-0.016
1670267508.879984,-9.288,-2.305,3.544,0.7835000000000001,0.5671,0.0091,-0.07,0.027,-0.047
1670267508.9199839,-9.248,-2.305,3.5540000000000003,0.7842,0.5671,0.0194,-0.09,0.003,-0.018000000000000002
1670267508.959984,-9.301,-2.303,3.5540000000000003,0.7859,0.5695,0.0194,-0.111,-0.001,0.002
1670267508.999984,-9.336,-2.238,3.653,0.7836000000000001,0.5679000000000001,0.0125,-0.096,-0.002,-0.013000000000000001
1670267509.039984,-9.264,-2.236,3.58,0.7843,0.5683,0.0253,-0.067,0.008,-0.02
1670267509.079984,-9.316,-2.236,3.669,0.7842,0.5677,0.023700000000000002,-0.057,0.002,-0.015
1670267509.119984,-9.281,-2.253,3.536,0.7842,0.5688,0.0028,-0.06,0.016,-0.016
1670267509.1599839,-9.293000000000001,-2.2880000000000003,3.5740000000000003,0.7804,0.5667,0.0198,-0.076,0.011,-0.009000000000000001
1670267509.199984,-9.282,-2.236,3.567,0.7873,0.5686,0.0196,-0.081,0.006,-0.011
1670267509.239984,-9.299,-2.217,3.573,0.7743,0.5684,0.0236,-0.07200000000000001,0.007,-0.017
1670267509.279984,-9.313,-2.204,3.5580000000000003,0.7869,0.5661,0.0205,-0.067,0.002,-0.024
1670267509.319984,-9.315,-2.226,3.5260000000000002,0.7739,0.5661,0.028,-0.07200000000000001,0.003,-0.021
1670267509.359983,-9.307,-2.257,3.605,0.7848,0.5696,0.0204,-0.09,-0.006,-0.012
1670267509.399983,-9.299,-2.289,3.611,0.7851,0.5672,0.0213,-0.08600000000000001,-0.003,-0.017
1670267509.439983,-9.283,-2.234,3.5660000000000003,0.7854,0.5667,0.020200000000000003,-0.076,-0.004,-0.004
1670267509.4799829,-9.257,-2.205,3.581,0.7849,0.5679000000000001,0.020900000000000002,-0.07100000000000001,-0.001,-0.02
1670267509.519983,-9.214,-2.253,3.5420000000000003,0.7849,0.5701,0.0195,-0.067,-0.002,-0.02
1670267509.559983,-9.315,-2.309,3.606,0.7857000000000001,0.5692,0.0212,-0.084,-0.01,-0.018000000000000002
1670267509.599983,-9.271,-2.307,3.6270000000000002,0.7881,0.5683,0.018500000000000003,-0.096,-0.014,-0.003
1670267509.639983,-9.381,-2.198,3.74,0.7864,0.5697,0.020200000000000003,-0.081,0.001,0.0
1670267509.679983,-9.293000000000001,-2.224,3.5740000000000003,0.7867000000000001,0.5661,0.0187,-0.056,0.02,-0.013000000000000001
1670267509.7199829,-9.25,-2.218,3.521,0.7873,0.5699000000000001,0.0222,-0.06,0.026000000000000002,-0.04
1670267509.759983,-9.327,-2.338,3.66,0.7859,0.5685,0.0213,-0.091,0.015,-0.02
1670267509.799983,-9.284,-2.305,3.649,0.7794000000000001,0.5662,0.0253,-0.112,0.005,0.005
1670267509.839983,-9.208,-2.24,3.598,0.7878000000000001,0.5699000000000001,0.0207,-0.085,0.001,-0.011
1670267509.879983,-9.315,-2.217,3.6830000000000003,0.7766000000000001,0.5675,0.0234,-0.061,0.008,-0.013000000000000001
1670267509.919983,-9.306000000000001,-2.2600000000000002,3.6550000000000002,0.7813,0.5695,0.021400000000000002,-0.06,0.015,-0.012
1670267509.9599829,-9.241,-2.285,3.476,0.7768,0.5633,0.0285,-0.076,0.027,-0.001
1670267509.999983,-9.282,-2.243,3.608,0.7846000000000001,0.5674,0.0211,-0.081,0.025,0.004
1670267510.039983,-9.288,-2.217,3.5260000000000002,0.7847000000000001,0.5683,0.020900000000000002,-0.078,0.013000000000000001,0.007
1670267510.079983,-9.299,-2.2,3.547,0.783,0.5681,0.0194,-0.069,0.016,-0.012
1670267510.119983,-9.312,-2.231,3.559,0.7881,0.5708,0.0229,-0.074,0.017,-0.016
1670267510.159983,-9.288,-2.244,3.5500000000000003,0.7848,0.5668000000000001,0.019200000000000002,-0.09,0.008,-0.021
1670267510.199983,-9.31,-2.27,3.601,0.7855000000000001,0.5695,0.018600000000000002,-0.09,0.006,-0.013000000000000001
1670267510.239983,-9.312,-2.257,3.587,0.7831,0.5703,0.019200000000000002,-0.082,0.003,-0.015
1670267510.279983,-9.324,-2.239,3.563,0.7826000000000001,0.5670000000000001,0.018600000000000002,-0.08,0.003,-0.018000000000000002
1670267510.319983,-9.322000000000001,-2.213,3.583,0.7822,0.5695,0.0196,-0.069,0.004,-0.019
1670267510.359983,-9.314,-2.25,3.609,0.7871,0.5692,0.0218,-0.073,0.005,-0.022
1670267510.399982,-9.275,-2.226,3.533,0.7848,0.5681,0.0195,-0.075,0.007,-0.026000000000000002
1670267510.439982,-9.246,-2.312,3.539,0.7863,0.5683,0.020300000000000002,-0.098,-0.004,-0.015
1670267510.479982,-9.372,-2.193,3.596,0.7868,0.5700000000000001,0.0206,-0.084,0.0,0.0
1670267510.5199819,-9.327,-2.277,3.61,0.7862,0.5665,0.02,-0.065,0.017,-0.006
1670267510.559982,-9.267,-2.181,3.476,0.7874,0.5658000000000001,0.018000000000000002,-0.058,0.016,-0.036000000000000004
1670267510.599982,-9.303,-2.318,3.544,0.7868,0.5688,0.021400000000000002,-0.08,0.006,-0.033
1670267510.639982,-9.333,-2.289,3.5660000000000003,0.784,0.5669000000000001,0.0171,-0.109,0.0,-0.008
1670267510.679982,-9.263,-2.204,3.553,0.7864,0.5678000000000001,0.0245,-0.092,-0.006,-0.01
1670267510.719982,-9.31,-2.263,3.571,0.7868,0.5706,0.0195,-0.07100000000000001,0.0,-0.015
1670267510.7599819,-9.324,-2.248,3.587,0.7837000000000001,0.5682,0.019100000000000002,-0.063,0.006,-0.019
1670267510.799982,-9.321,-2.253,3.588,0.7837000000000001,0.5699000000000001,0.0181,-0.076,0.01,-0.011
1670267510.839982,-9.325000000000001,-2.273,3.641,0.7878000000000001,0.5689000000000001,0.0188,-0.066,0.014,-0.01
1670267510.879982,-9.329,-2.263,3.633,0.7846000000000001,0.5680000000000001,0.0179,-0.07,0.012,-0.009000000000000001
1670267510.919982,-9.272,-2.217,3.478,0.7875000000000001,0.5684,0.0187,-0.076,0.006,-0.017
1670267510.959982,-9.312,-2.228,3.552,0.7869,0.5680000000000001,0.0189,-0.08,0.004,-0.025
1670267510.9999819,-9.279,-2.25,3.567,0.7845000000000001,0.5702,0.018000000000000002,-0.08600000000000001,-0.001,-0.027
1670267511.039982,-9.324,-2.275,3.533,0.7841,0.5681,0.02,-0.081,0.005,-0.021
1670267511.079982,-9.469,-2.1590000000000003,3.748,0.7874,0.5710000000000001,0.0201,0.054,0.101,-0.011
1670267511.119982,-9.321,-2.3970000000000002,3.575,0.7848,0.5690000000000001,0.0189,0.034,0.106,-0.063
1670267511.159982,-9.294,-2.214,3.632,0.7865000000000001,0.5691,0.0181,-0.061,0.014,-0.036000000000000004
1670267511.199982,-9.273,-2.319,3.464,0.7845000000000001,0.5679000000000001,0.0177,-0.07100000000000001,0.029,-0.029
1670267511.239982,-9.339,-2.2880000000000003,3.5540000000000003,0.7841,0.5692,0.018000000000000002,-0.082,0.002,-0.003
1670267511.279982,-9.279,-2.31,3.438,0.7808,0.5677,0.015600000000000001,-0.081,-0.004,-0.014
1670267511.319982,-9.375,-2.209,3.52,0.785,0.5694,0.0222,-0.076,-0.002,0.003
1670267511.359982,-9.305,-2.237,3.4410000000000003,0.7832,0.5669000000000001,0.0236,-0.054,0.01,-0.008
1670267511.399982,-9.318,-2.224,3.5180000000000002,0.7844,0.5683,0.018500000000000003,-0.055,0.01,-0.021
1670267511.439981,-9.299,-2.2920000000000003,3.444,0.7842,0.5677,0.0183,-0.07200000000000001,0.005,-0.027
1670267511.479981,-9.294,-2.214,3.477,0.7821,0.5685,0.0175,-0.084,-0.009000000000000001,0.0
1670267511.519981,-9.318,-2.221,3.623,0.7834,0.5692,0.0183,-0.092,-0.022,-0.012
1670267511.5599809,-9.188,-2.269,3.43,0.7837000000000001,0.5689000000000001,0.019100000000000002,-0.134,-0.049,-0.035
1670267511.599981,-9.458,-2.2520000000000002,3.6390000000000002,0.7817000000000001,0.5718,0.017,-0.16,-0.099,-0.049
1670267511.639981,-9.245000000000001,-2.237,3.555,0.7824,0.5700000000000001,0.0189,-0.093,-0.004,-0.004
1670267511.679981,-9.317,-2.253,3.637,0.7835000000000001,0.5681,0.018000000000000002,-0.067,0.0,-0.003
1670267511.719981,-9.3,-2.262,3.5820000000000003,0.7811,0.5694,0.0211,-0.05,0.0,-0.01
1670267511.759981,-9.274000000000001,-2.254,3.593,0.7804,0.5677,0.0195,-0.066,0.011,0.0
1670267511.7999809,-9.268,-2.258,3.571,0.7839,0.5706,0.018600000000000002,-0.069,0.017,-0.009000000000000001
1670267511.839981,-9.295,-2.238,3.5300000000000002,0.7838,0.5678000000000001,0.018600000000000002,-0.082,0.013000000000000001,-0.009000000000000001
1670267511.879981,-9.338000000000001,-2.269,3.624,0.7851,0.5688,0.0189,-0.08700000000000001,0.014,-0.015
1670267511.919981,-9.293000000000001,-2.287,3.583,0.7861,0.5684,0.0173,-0.084,0.005,-0.018000000000000002
1670267511.959981,-9.284,-2.255,3.481,0.7854,0.5696,0.0189,-0.089,0.003,-0.008
1670267511.999981,-9.305,-2.233,3.579,0.7826000000000001,0.5702,0.018000000000000002,-0.08,0.006,-0.007
1670267512.039981,-9.261000000000001,-2.233,3.535,0.7814,0.5679000000000001,0.0188,-0.081,0.008,-0.009000000000000001
1670267512.079981,-9.285,-2.336,3.6310000000000002,0.7815000000000001,0.5710000000000001,0.0205,-0.083,0.014,-0.015
1670267512.119981,-9.362,-2.2840000000000003,3.673,0.7815000000000001,0.5685,0.021400000000000002,-0.082,-0.002,-0.002
1670267512.159981,-9.339,-2.197,3.577,0.7827000000000001,0.5662,0.0177,-0.065,0.004,0.013000000000000001
1670267512.199981,-9.309000000000001,-2.183,3.609,0.7857000000000001,0.5667,0.0183,-0.068,0.022,-0.005
1670267512.239981,-9.279,-2.251,3.5700000000000003,0.7817000000000001,0.5683,0.0179,-0.064,0.032,-0.02
1670267512.279981,-9.311,-2.324,3.565,0.7832,0.5675,0.017400000000000002,-0.082,0.016,-0.014
1670267512.319981,-9.338000000000001,-2.249,3.5100000000000002,0.7853,0.5702,0.0198,-0.105,0.005,-0.008
1670267512.359981,-9.324,-2.255,3.579,0.7835000000000001,0.5686,0.0207,-0.101,-0.004,-0.012
1670267512.399981,-9.323,-2.186,3.586,0.7827000000000001,0.5684,0.0405,-0.085,0.004,-0.013000000000000001
1670267512.439981,-9.357,-2.278,3.6,0.7831,0.5648000000000001,0.008,-0.052000000000000005,0.013000000000000001,-0.016
1670267512.399981,-9.357,-2.281,3.548,0.7831,0.5648000000000001,0.021,-0.065,0.019,-0.013000000000000001
1670267512.439981,-9.33,-2.281,3.62,0.7766000000000001,0.5652,0.021,-0.082,0.014,-0.013000000000000001
1670267512.47998,-9.329,-2.2760000000000002,3.525,0.7788,0.5688,0.0307,-0.09,0.007,-0.008
1670267512.51998,-9.328,-2.209,3.525,0.7704000000000001,0.5664,0.0307,-0.08,0.004,-0.016
1670267512.55998,-9.314,-2.204,3.523,0.7806000000000001,0.5684,-0.0051,-0.077,0.001,-0.022
1670267512.5999799,-9.337,-2.25,3.626,0.7791,0.5664,0.0292,-0.079,0.004,-0.015
1670267512.63998,-9.321,-2.2680000000000002,3.5580000000000003,0.7834,0.5664,0.024,-0.082,0.003,-0.017
1670267512.67998,-9.3,-2.277,3.561,0.7729,0.5622,0.0089,-0.076,-0.006,-0.012
1670267512.71998,-9.315,-2.236,3.493,0.7791,0.5647,0.018600000000000002,-0.079,0.001,-0.011
1670267512.75998,-9.304,-2.233,3.593,0.7816000000000001,0.5689000000000001,0.016900000000000002,-0.065,0.008,-0.013000000000000001
1670267512.79998,-9.311,-2.277,3.607,0.7806000000000001,0.5683,0.0201,-0.068,0.005,-0.02
1670267512.83998,-9.358,-2.259,3.557,0.7813,0.5659000000000001,0.023200000000000002,-0.09,0.011,-0.02
1670267512.87998,-9.302,-2.328,3.619,0.7815000000000001,0.5675,0.0176,-0.096,-0.002,0.001
1670267512.91998,-9.371,-2.1390000000000002,3.6470000000000002,0.784,0.5683,0.018600000000000002,-0.07200000000000001,0.011,0.004
1670267512.95998,-9.363,-2.253,3.587,0.7815000000000001,0.5670000000000001,0.0178,-0.056,0.024,-0.025
1670267512.99998,-9.298,-2.211,3.517,0.7829,0.5682,0.020800000000000003,-0.07200000000000001,0.028,-0.032
1670267513.03998,-9.312,-2.331,3.575,0.7828,0.5667,0.0158,-0.113,0.0,-0.003
1670267513.07998,-9.32,-2.305,3.608,0.7806000000000001,0.5669000000000001,0.0158,-0.117,-0.017,0.004
1670267513.11998,-9.309000000000001,-2.1750000000000003,3.5340000000000003,0.7821,0.5659000000000001,0.0171,-0.095,-0.004,-0.02
1670267513.15998,-9.352,-2.208,3.6790000000000003,0.768,0.5638000000000001,0.022600000000000002,-0.065,0.0,-0.032
1670267513.19998,-9.31,-2.254,3.555,0.7806000000000001,0.5673,0.016800000000000002,-0.06,0.012,-0.022
1670267513.23998,-9.275,-2.261,3.484,0.7782,0.5662,0.0258,-0.078,0.014,-0.014
1670267513.27998,-9.255,-2.242,3.464,0.7812,0.5688,0.0175,-0.076,0.009000000000000001,-0.005
1670267513.31998,-9.329,-2.262,3.592,0.7736000000000001,0.5655,0.0189,-0.074,0.006,-0.014
1670267513.35998,-9.304,-2.232,3.535,0.7824,0.5683,0.0166,-0.08,0.006,-0.02
1670267513.39998,-9.342,-2.2600000000000002,3.557,0.7827000000000001,0.5656,0.0178,-0.082,0.004,-0.023
1670267513.43998,-9.331,-2.2720000000000002,3.528,0.7818,0.5645,0.020200000000000003,-0.081,0.003,-0.015
1670267513.47998,-9.324,-2.266,3.533,0.78,0.5652,0.0155,-0.089,-0.005,-0.011
1670267513.519979,-9.315,-2.236,3.586,0.7835000000000001,0.5688,0.0167,-0.08,0.005,-0.019
1670267513.559979,-9.326,-2.263,3.599,0.78,0.5665,0.0177,-0.073,0.006,-0.01
1670267513.599979,-9.28,-2.263,3.499,0.7788,0.5688,0.0166,-0.075,0.003,-0.019
1670267513.639979,-9.289,-2.224,3.544,0.7843,0.5688,0.0173,-0.078,0.005,-0.021
1670267513.679979,-9.271,-2.322,3.544,0.7789,0.5692,0.015000000000000001,-0.08,-0.008,-0.01
1670267513.719979,-9.424,-2.392,3.662,0.7793,0.5684,0.0151,-0.20800000000000002,0.083,0.041
1670267513.759979,-9.25,-2.203,3.438,0.7818,0.5670000000000001,0.015700000000000002,-0.163,0.029,0.0
1670267513.799979,-9.329,-2.165,3.474,0.7825000000000001,0.5672,0.0135,-0.10400000000000001,0.03,-0.015
1670267513.839979,-9.342,-2.2560000000000002,3.519,0.7826000000000001,0.5700000000000001,0.0131,-0.10300000000000001,0.014,-0.028
1670267513.879979,-9.381,-2.339,3.553,0.7828,0.5700000000000001,0.0155,-0.107,-0.003,-0.011
1670267513.919979,-9.291,-2.25,3.462,0.7813,0.5686,0.0126,-0.099,-0.006,-0.015
1670267513.959979,-9.3,-2.314,3.5460000000000003,0.7819,0.5674,0.0137,-0.082,0.0,-0.015
1670267513.999979,-9.287,-2.2640000000000002,3.458,0.7815000000000001,0.5676,0.013900000000000001,-0.062,-0.001,-0.007
1670267514.039979,-9.361,-2.291,3.47,0.778,0.5681,0.0132,-0.073,0.012,-0.01
1670267514.079979,-9.33,-2.269,3.517,0.7818,0.5662,0.014400000000000001,-0.066,0.003,-0.013000000000000001
1670267514.119979,-9.282,-2.308,3.487,0.7818,0.5701,0.0164,-0.076,0.0,-0.01
1670267514.159979,-9.32,-2.253,3.481,0.7808,0.5669000000000001,0.0152,-0.068,0.003,-0.017
1670267514.199979,-9.343,-2.238,3.411,0.781,0.5678000000000001,0.0159,-0.06,-0.003,-0.013000000000000001
1670267514.239979,-9.266,-2.09,3.49,0.7832,0.5684,0.016300000000000002,0.034,-0.05,-0.034
1670267514.279979,-9.427,-2.44,3.572,0.7837000000000001,0.5682,0.015000000000000001,-0.014,-0.01,-0.022
1670267514.319979,-9.336,-2.244,3.589,0.7805000000000001,0.5669000000000001,0.0165,-0.043000000000000003,0.018000000000000002,-0.022
1670267514.359979,-9.305,-2.281,3.5300000000000002,0.7829,0.5695,0.0151,-0.061,-0.005,-0.021
1670267514.399979,-9.296,-2.277,3.604,0.7831,0.5681,0.0164,-0.075,-0.001,-0.021
1670267514.439979,-9.302,-2.274,3.5500000000000003,0.7812,0.5667,0.016900000000000002,-0.079,0.0,-0.025
1670267514.479979,-9.297,-2.322,3.58,0.783,0.5679000000000001,0.016800000000000002,-0.084,-0.006,-0.024
1670267514.519979,-9.363,-2.201,3.61,0.7807000000000001,0.5678000000000001,0.019100000000000002,-0.07100000000000001,-0.001,0.004
1670267514.559978,-9.31,-2.27,3.54,0.7799,0.5659000000000001,0.0166,-0.062,0.015,0.002
1670267514.599978,-9.25,-2.233,3.5220000000000002,0.7822,0.5686,0.0189,-0.063,0.025,-0.024
1670267514.639978,-9.27,-2.297,3.513,0.7799,0.5686,0.0176,-0.07100000000000001,0.016,-0.027
1670267514.679978,-9.306000000000001,-2.308,3.553,0.782,0.5683,0.0181,-0.097,0.001,-0.011
1670267514.719978,-9.276,-2.299,3.5180000000000002,0.7755000000000001,0.5679000000000001,0.017,-0.101,0.0,-0.008
1670267514.759978,-9.279,-2.202,3.504,0.7813,0.5680000000000001,0.0175,-0.078,0.004,-0.01
1670267514.799978,-9.299,-2.263,3.5420000000000003,0.7755000000000001,0.5664,0.015700000000000002,-0.063,0.011,-0.021
1670267514.839978,-9.325000000000001,-2.269,3.571,0.7816000000000001,0.5666,0.0181,-0.065,0.017,-0.011
1670267514.879978,-9.265,-2.254,3.516,0.781,0.5695,0.0161,-0.073,0.016,-0.012
1670267514.919978,-9.304,-2.2600000000000002,3.532,0.7808,0.5681,0.018000000000000002,-0.083,0.002,-0.01
1670267514.959978,-9.319,-2.228,3.525,0.7809,0.5663,0.016,-0.081,0.0,-0.016
1670267514.999978,-9.288,-2.214,3.481,0.7811,0.5684,0.0178,-0.079,0.002,-0.019
1670267515.039978,-9.262,-2.248,3.455,0.7787000000000001,0.5670000000000001,0.0194,-0.082,0.003,-0.026000000000000002
1670267515.079978,-9.294,-2.2680000000000002,3.544,0.7832,0.5666,0.0159,-0.091,-0.004,-0.02
1670267515.119978,-9.352,-2.291,3.598,0.7831,0.5684,0.0154,-0.08700000000000001,-0.004,-0.009000000000000001
1670267515.159978,-9.346,-2.2720000000000002,3.63,0.7796000000000001,0.5689000000000001,0.019,-0.08600000000000001,-0.002,-0.018000000000000002
1670267515.199978,-9.31,-2.2520000000000002,3.5540000000000003,0.7794000000000001,0.5648000000000001,0.015300000000000001,-0.076,0.0,-0.021
1670267515.239978,-9.229000000000001,-2.356,3.533,0.7821,0.5681,0.0152,-0.075,0.008,-0.027
1670267515.279978,-9.335,-2.248,3.606,0.7779,0.5684,0.017400000000000002,-0.083,-0.007,-0.006
1670267515.319978,-9.321,-2.209,3.5660000000000003,0.7804,0.5668000000000001,0.016300000000000002,-0.064,0.011,0.011
1670267515.359978,-9.267,-2.199,3.543,0.7818,0.5705,0.0166,-0.051000000000000004,0.019,-0.016
1670267515.399978,-9.290000000000001,-2.311,3.5260000000000002,0.778,0.5661,0.0216,-0.063,0.019,-0.037
1670267515.439978,-9.305,-2.36,3.511,0.7779,0.5689000000000001,0.0151,-0.1,0.007,-0.024
1670267515.4799778,-9.363,-2.306,3.614,0.7805000000000001,0.5674,0.018000000000000002,-0.124,-0.004,-0.004
1670267515.519978,-9.298,-2.302,3.614,0.7764000000000001,0.5663,0.018600000000000002,-0.109,-0.006,-0.012
1670267515.559978,-9.311,-2.239,3.611,0.781,0.5655,0.0164,-0.074,-0.003,-0.001
1670267515.599977,-9.358,-2.2640000000000002,3.61,0.7807000000000001,0.5676,0.0159,-0.058,0.018000000000000002,-0.002
1670267515.639977,-9.311,-2.266,3.576,0.7833,0.5695,0.0181,-0.061,0.026000000000000002,-0.002
1670267515.679977,-9.302,-2.266,3.479,0.7816000000000001,0.5688,0.018000000000000002,-0.066,0.028,-0.007
1670267515.719977,-9.315,-2.2680000000000002,3.507,0.7802,0.5672,0.0167,-0.07200000000000001,0.022,-0.01
1670267515.759977,-9.289,-2.27,3.4290000000000003,0.784,0.5672,0.0194,-0.09,0.019,-0.023
1670267515.799977,-9.331,-2.2720000000000002,3.476,0.781,0.5686,0.0184,-0.095,0.01,-0.023
1670267515.839977,-9.295,-2.257,3.515,0.7812,0.5700000000000001,0.0123,-0.1,0.001,-0.018000000000000002
1670267515.879977,-9.335,-2.261,3.561,0.7794000000000001,0.5668000000000001,0.0015,-0.094,-0.002,-0.013000000000000001
1670267515.919977,-9.302,-2.245,3.532,0.7779,0.5623,0.015300000000000001,-0.078,0.001,-0.017
1670267515.959977,-9.311,-2.2920000000000003,3.5140000000000002,0.7779,0.5684,-0.0056,-0.066,0.003,-0.024
1670267515.999977,-9.311,-2.327,3.588,0.7827000000000001,0.5627,0.006500000000000001,-0.062,0.0,-0.025
1670267516.039977,-9.338000000000001,-2.327,3.503,0.7654000000000001,0.5627,0.006500000000000001,-0.08600000000000001,-0.002,-0.019
1670267516.079977,-9.264,-2.331,3.503,0.7723,0.5662,0.0263,-0.091,-0.003,0.0
1670267516.119977,-9.392,-2.187,3.561,0.781,0.5652,0.0302,-0.078,0.012,0.002
1670267516.159977,-9.315,-2.302,3.484,0.7787000000000001,0.5664,0.0161,-0.068,0.02,-0.03
1670267516.199977,-9.271,-2.263,3.461,0.7811,0.5688,0.023100000000000002,-0.074,0.002,-0.029
1670267516.239977,-9.289,-2.327,3.504,0.782,0.5666,0.0122,-0.094,-0.007,-0.002
1670267516.2799768,-9.315,-2.2800000000000002,3.5100000000000002,0.7804,0.5697,0.0142,-0.076,-0.007,-0.008
1670267516.319977,-9.285,-2.317,3.523,0.7771,0.5682,0.0172,-0.066,0.0,-0.025
1670267516.359977,-9.307,-2.253,3.561,0.7796000000000001,0.5681,0.0182,-0.051000000000000004,0.009000000000000001,-0.021
1670267516.399977,-9.315,-2.331,3.519,0.7809,0.5690000000000001,0.018600000000000002,-0.07200000000000001,0.012,-0.006
1670267516.439977,-9.3,-2.291,3.5100000000000002,0.7793,0.5666,0.018000000000000002,-0.076,0.013000000000000001,-0.007
1670267516.479977,-9.313,-2.25,3.552,0.7782,0.5689000000000001,0.019100000000000002,-0.078,0.013000000000000001,-0.004
1670267516.5199769,-9.342,-2.225,3.669,0.781,0.5688,0.0162,0.033,0.073,0.012
1670267516.559977,-9.314,-2.15,3.632,0.7803,0.5669000000000001,0.0181,0.004,0.058,-0.033
1670267516.599977,-9.219,-2.363,3.353,0.7788,0.5651,0.023200000000000002,-0.058,0.019,-0.022
1670267516.639977,-9.293000000000001,-2.233,3.447,0.7816000000000001,0.5701,0.0161,-0.08600000000000001,0.012,-0.017
1670267516.679977,-9.367,-2.237,3.5220000000000002,0.7704000000000001,0.5655,0.019,-0.07100000000000001,0.018000000000000002,-0.014
1670267516.719976,-9.333,-2.215,3.508,0.781,0.5651,0.0158,-0.07200000000000001,0.007,-0.014
1670267516.759976,-9.312,-2.236,3.515,0.7721,0.5636,0.0258,-0.051000000000000004,0.001,-0.017
1670267516.799976,-9.3,-2.262,3.525,0.7806000000000001,0.5702,0.0194,-0.069,-0.008,-0.021
1670267516.839976,-9.324,-2.32,3.513,0.7796000000000001,0.5670000000000001,0.016900000000000002,-0.077,-0.027,-0.009000000000000001
1670267516.879976,-9.437,-2.201,3.557,0.7799,0.5673,0.0187,-0.06,0.0,0.004
1670267516.919976,-9.431000000000001,-2.254,3.532,0.7813,0.5653,0.018000000000000002,-0.049,0.024,-0.006
1670267516.959976,-9.307,-2.19,3.5260000000000002,0.7807000000000001,0.5658000000000001,0.0189,-0.057,0.018000000000000002,-0.027
1670267516.999976,-9.274000000000001,-2.221,3.467,0.7809,0.5651,0.020200000000000003,-0.079,0.0,-0.019
1670267517.039976,-9.343,-2.308,3.525,0.7787000000000001,0.5671,0.018000000000000002,-0.099,-0.025,0.0
1670267517.0799758,-9.290000000000001,-2.196,3.537,0.7785000000000001,0.5655,0.0177,-0.082,-0.005,-0.005
1670267517.119976,-9.298,-2.177,3.561,0.7793,0.5666,0.018000000000000002,-0.101,-0.015,-0.029
1670267517.159976,-9.154,-2.293,3.423,0.7791,0.5675,0.019,-0.169,-0.082,-0.036000000000000004
1670267517.199976,-9.388,-2.2,3.561,0.7791,0.5660000000000001,0.0164,-0.114,0.007,-0.015
1670267517.239976,-9.299,-2.278,3.608,0.7736000000000001,0.5667,0.0187,-0.101,0.012,0.0
1670267517.279976,-9.359,-2.233,3.592,0.7823,0.5691,0.0154,-0.083,0.001,-0.01
1670267517.3199759,-9.325000000000001,-2.236,3.572,0.7775000000000001,0.5672,0.016900000000000002,-0.07100000000000001,0.005,-0.015
1670267517.359976,-9.287,-2.274,3.529,0.7773,0.5666,0.0183,-0.076,0.003,-0.022
1670267517.399976,-9.301,-2.309,3.575,0.779,0.5684,0.0167,-0.093,0.0,-0.013000000000000001
1670267517.439976,-9.258000000000001,-2.265,3.464,0.7723,0.5661,0.0195,-0.083,0.0,-0.008
1670267517.479976,-9.314,-2.2760000000000002,3.555,0.7777000000000001,0.5681,0.0194,-0.081,0.0,-0.01
1670267517.519976,-9.283,-2.2640000000000002,3.525,0.7822,0.5696,0.0183,-0.075,0.007,-0.022
1670267517.5599759,-9.338000000000001,-2.277,3.509,0.778,0.5666,0.0164,-0.076,0.008,-0.016
1670267517.599976,-9.271,-2.35,3.61,0.7801,0.5678000000000001,0.015700000000000002,-0.078,-0.001,-0.01
1670267517.639976,-9.352,-2.177,3.657,0.7785000000000001,0.5672,0.018500000000000003,-0.065,0.003,0.02
1670267517.679976,-9.327,-2.2680000000000002,3.491,0.7802,0.5660000000000001,0.0173,-0.055,0.023,-0.006
1670267517.719976,-9.261000000000001,-2.213,3.464,0.7766000000000001,0.5675,0.0145,-0.053,0.039,-0.03
1670267517.759975,-9.299,-2.324,3.486,0.7846000000000001,0.5688,0.0195,-0.093,0.018000000000000002,-0.027
1670267517.799975,-9.32,-2.327,3.48,0.7815000000000001,0.5665,0.0155,-0.116,0.003,-0.004
1670267517.839975,-9.296,-2.232,3.563,0.7808,0.5680000000000001,0.0178,-0.10300000000000001,-0.01,-0.009000000000000001
1670267517.879975,-9.33,-2.226,3.669,0.7763,0.5711,0.015700000000000002,-0.076,-0.016,-0.008
1670267517.919975,-9.303,-2.24,3.595,0.781,0.5681,0.0142,-0.054,-0.002,-0.012
1670267517.959975,-9.335,-2.259,3.531,0.7811,0.5679000000000001,0.0161,-0.056,0.027,-0.009000000000000001
1670267517.999975,-9.317,-2.287,3.5420000000000003,0.7834,0.5681,0.019700000000000002,-0.075,0.038,-0.01
1670267518.039975,-9.304,-2.274,3.475,0.7786000000000001,0.5681,0.0177,-0.10300000000000001,0.024,0.0
1670267518.079975,-9.321,-2.249,3.483,0.7814,0.5666,0.0161,-0.111,0.023,-0.01
1670267518.1199749,-9.317,-2.248,3.519,0.7801,0.5669000000000001,0.0173,-0.101,0.012,-0.011
1670267518.159975,-9.309000000000001,-2.274,3.524,0.7796000000000001,0.5679000000000001,0.0155,-0.095,0.0,-0.018000000000000002
1670267518.199975,-9.345,-2.274,3.5420000000000003,0.7806000000000001,0.5682,0.0182,-0.084,-0.004,-0.001
1670267518.239975,-9.348,-2.221,3.532,0.7824,0.5665,0.016900000000000002,-0.07200000000000001,0.008,-0.004
1670267518.279975,-9.329,-2.23,3.519,0.7821,0.5650000000000001,0.0172,-0.057,0.021,-0.009000000000000001
1670267518.319975,-9.335,-2.225,3.452,0.7814,0.5656,0.0155,-0.062,0.018000000000000002,-0.009000000000000001
1670267518.3599749,-9.321,-2.2960000000000003,3.5140000000000002,0.7818,0.5655,0.0125,-0.07200000000000001,0.015,-0.014
1670267518.399975,-9.370000000000001,-2.158,3.553,0.781,0.5692,0.0137,-0.085,0.001,0.009000000000000001
1670267518.439975,-9.375,-2.293,3.46,0.7829,0.5662,0.015000000000000001,-0.08,0.024,-0.004
1670267518.479975,-9.318,-2.178,3.5260000000000002,0.7827000000000001,0.5691,0.0152,-0.069,0.022,-0.037
1670267518.519975,-9.26,-2.299,3.419,0.7821,0.5690000000000001,0.0134,-0.085,0.012,-0.03
1670267518.559975,-9.354000000000001,-2.2800000000000002,3.505,0.7836000000000001,0.5658000000000001,0.015300000000000001,-0.1,-0.001,-0.004
1670267518.5999749,-9.315,-2.227,3.513,0.7832,0.5665,0.0173,-0.089,-0.007,-0.01
1670267518.639975,-9.334,-2.193,3.5340000000000003,0.7817000000000001,0.5663,0.0159,-0.078,0.001,-0.023
1670267518.679975,-9.345,-2.2840000000000003,3.524,0.7794000000000001,0.5674,0.013900000000000001,-0.07,0.011,-0.019
1670267518.719975,-9.324,-2.2600000000000002,3.49,0.7802,0.5670000000000001,0.015700000000000002,-0.064,0.008,-0.008
1670267518.759975,-9.311,-2.24,3.467,0.7831,0.5670000000000001,0.015700000000000002,-0.093,0.006,-0.014
1670267518.799974,-9.385,-2.259,3.544,0.7782,0.5656,0.0148,-0.083,0.004,-0.014
1670267518.839974,-9.381,-2.275,3.577,0.7795000000000001,0.5670000000000001,0.0165,-0.076,-0.001,-0.015
1670267518.879974,-9.332,-2.2680000000000002,3.498,0.783,0.5689000000000001,0.0158,-0.076,0.001,-0.027
1670267518.9199739,-9.324,-2.2640000000000002,3.481,0.7809,0.5672,0.0151,-0.079,-0.003,-0.022
1670267518.959974,-9.338000000000001,-2.2800000000000002,3.446,0.7837000000000001,0.5675,0.0125,-0.083,-0.004,-0.012
1670267518.999974,-9.329,-2.285,3.556,0.7804,0.5691,0.0152,-0.08,-0.006,-0.009000000000000001
1670267519.039974,-9.351,-2.308,3.552,0.7812,0.5684,0.015300000000000001,-0.076,-0.003,-0.013000000000000001
1670267519.079974,-9.343,-2.274,3.54,0.7803,0.5689000000000001,0.013300000000000001,-0.074,-0.001,-0.017
1670267519.119974,-9.294,-2.338,3.5580000000000003,0.7807000000000001,0.5685,0.0155,-0.08,-0.004,-0.023
1670267519.1599739,-9.4,-2.177,3.577,0.7783,0.5654,0.018000000000000002,-0.08,-0.004,0.01
1670267519.199974,-9.302,-2.246,3.375,0.7795000000000001,0.5656,0.0158,-0.056,0.015,-0.008
1670267519.239974,-9.235,-2.226,3.454,0.781,0.5650000000000001,0.016900000000000002,-0.048,0.026000000000000002,-0.029
1670267519.279974,-9.294,-2.312,3.4050000000000002,0.7796000000000001,0.5671,0.0149,-0.07100000000000001,0.02,-0.019
1670267519.319974,-9.391,-2.351,3.549,0.7815000000000001,0.5687,0.0142,-0.113,0.02,0.0
1670267519.359974,-9.313,-2.36,3.471,0.7833,0.5663,0.0154,-0.223,0.059000000000000004,0.032
1670267519.3999739,-9.314,-2.097,3.455,0.7801,0.5645,0.0123,-0.163,0.015,0.011
1670267519.439974,-9.326,-2.251,3.341,0.776,0.5669000000000001,0.0241,-0.094,0.0,-0.002
1670267519.479974,-9.339,-2.245,3.379,0.7812,0.5662,0.0119,-0.066,0.0,-0.008
1670267519.519974,-9.297,-2.261,3.398,0.7821,0.5692,0.0027,-0.064,0.006,-0.007
1670267519.559974,-9.297,-2.2640000000000002,3.447,0.7821,0.5659000000000001,-0.008700000000000001,-0.07,0.005,-0.004
1670267519.599974,-9.336,-2.2640000000000002,3.468,0.7779,0.5659000000000001,0.007,-0.07100000000000001,0.0,-0.013000000000000001
1670267519.6399739,-9.376,-2.207,3.468,0.7854,0.5686,0.007,-0.069,-0.002,-0.011
1670267519.679974,-9.361,-2.259,3.497,0.7818,0.5658000000000001,0.006500000000000001,-0.078,0.006,-0.024
1670267519.719974,-9.267,-2.251,3.363,0.782,0.5659000000000001,-0.005,-0.083,0.003,-0.024
1670267519.759974,-9.291,-2.266,3.3930000000000002,0.7817000000000001,0.5668000000000001,0.020800000000000003,-0.092,0.0,-0.017
1670267519.799974,-9.388,-2.2640000000000002,3.511,0.7759,0.5672,0.002,-0.09,-0.005,-0.016
1670267519.839973,-9.308,-2.215,3.446,0.778,0.5657,0.0073,-0.08,-0.003,-0.025
1670267519.879973,-9.361,-2.305,3.504,0.7828,0.5671,0.013900000000000001,-0.035,-0.017,-0.021
1670267519.919973,-9.271,-2.071,3.414,0.7821,0.5665,0.0162,0.033,-0.068,-0.07200000000000001
1670267519.9599729,-9.541,-2.482,3.575,0.7786000000000001,0.5662,0.0129,-0.024,-0.019,0.0
1670267519.999973,-9.392,-2.176,3.589,0.7809,0.5664,0.0167,-0.037,0.021,-0.012
1670267520.039973,-9.342,-2.326,3.499,0.7672,0.5644,0.0241,-0.055,0.014,-0.035
1670267520.079973,-9.276,-2.2640000000000002,3.428,0.778,0.5672,0.014,-0.08,0.01,-0.041
1670267520.119973,-9.342,-2.356,3.523,0.7782,0.5633,0.016300000000000002,-0.112,-0.003,-0.014
1670267520.159973,-9.348,-2.311,3.547,0.781,0.5692,0.015600000000000001,-0.096,-0.006,-0.008
1670267520.1999729,-9.278,-2.2600000000000002,3.498,0.7718,0.5664,0.019200000000000002,-0.078,-0.003,-0.021
1670267520.239973,-9.259,-2.214,3.516,0.7827000000000001,0.5684,0.0155,-0.058,0.009000000000000001,-0.014
1670267520.279973,-9.286,-2.293,3.5420000000000003,0.7763,0.5666,0.0198,-0.065,0.012,-0.01
1670267520.319973,-9.336,-2.322,3.577,0.7795000000000001,0.5684,0.0137,-0.073,0.02,-0.01
1670267520.359973,-9.312,-2.282,3.491,0.7798,0.5712,0.0184,-0.083,0.014,-0.009000000000000001
1670267520.399973,-9.326,-2.2520000000000002,3.5100000000000002,0.7806000000000001,0.5677,0.0161,-0.079,0.007,-0.007
1670267520.4399729,-9.343,-2.241,3.508,0.781,0.5667,0.0162,-0.075,0.016,-0.017
1670267520.479973,-9.367,-2.293,3.5580000000000003,0.7827000000000001,0.5694,0.0142,-0.078,0.008,-0.019
1670267520.519973,-9.322000000000001,-2.275,3.476,0.7829,0.5713,0.0161,-0.094,0.0,-0.012
1670267520.559973,-9.355,-2.299,3.552,0.7791,0.5673,0.0164,-0.097,-0.011,-0.016
1670267520.599973,-9.374,-2.263,3.557,0.7802,0.5661,0.0167,-0.084,-0.013000000000000001,-0.019
1670267520.639973,-9.32,-2.275,3.556,0.7802,0.5680000000000001,0.0152,-0.082,-0.004,-0.02
1670267520.679973,-9.332,-2.329,3.568,0.7674000000000001,0.5624,0.0236,-0.074,0.002,-0.023
1670267520.719973,-9.331,-2.359,3.599,0.7821,0.5692,0.0171,-0.08700000000000001,0.0,-0.02
1670267520.759973,-9.298,-2.33,3.557,0.7839,0.5702,0.0159,-0.094,-0.005,0.004
1670267520.799973,-9.355,-2.223,3.555,0.7789,0.5688,0.016,-0.068,0.013000000000000001,0.006
1670267520.839973,-9.317,-2.239,3.49,0.7763,0.5660000000000001,0.0151,-0.054,0.024,-0.011
1670267520.879972,-9.339,-2.312,3.5700000000000003,0.7797000000000001,0.5667,0.0172,-0.064,0.026000000000000002,-0.025
1670267520.919972,-9.322000000000001,-2.379,3.584,0.7744000000000001,0.5652,0.0173,-0.107,0.014,-0.006
1670267520.959972,-9.342,-2.295,3.515,0.779,0.5691,0.0161,-0.109,0.011,0.002
1670267520.9999719,-9.316,-2.29,3.537,0.7798,0.5691,0.0175,-0.085,0.01,-0.01
1670267521.039972,-9.376,-2.225,3.5740000000000003,0.7823,0.5657,0.0159,-0.056,0.021,-0.012
1670267521.079972,-9.333,-2.297,3.5500000000000003,0.7779,0.5670000000000001,0.014,-0.054,0.021,0.001
1670267521.119972,-9.323,-2.319,3.494,0.7816000000000001,0.5684,0.014700000000000001,-0.067,0.02,0.001
1670267521.159972,-9.342,-2.283,3.47,0.7789,0.5666,0.015300000000000001,-0.074,0.01,0.0
1670267521.199972,-9.324,-2.248,3.541,0.7826000000000001,0.5676,0.0126,-0.078,0.004,-0.001
1670267521.2399719,-9.326,-2.241,3.431,0.784,0.5675,0.017,-0.076,-0.001,-0.012
1670267521.279972,-9.367,-2.251,3.52,0.7799,0.5697,0.014400000000000001,-0.084,-0.006,-0.015
1670267521.319972,-9.321,-2.2640000000000002,3.483,0.7812,0.5677,0.0161,-0.082,-0.003,-0.019
1670267521.359972,-9.3,-2.263,3.517,0.7826000000000001,0.5676,0.016,-0.096,-0.004,-0.021
1670267521.399972,-9.324,-2.257,3.498,0.7791,0.5686,0.014700000000000001,-0.081,0.001,-0.014
1670267521.439972,-9.335,-2.2920000000000003,3.587,0.7785000000000001,0.5663,0.015000000000000001,-0.08,0.006,-0.018000000000000002
1670267521.479972,-9.317,-2.297,3.519,0.7812,0.5680000000000001,0.0137,-0.078,0.008,-0.027
1670267521.519972,-9.302,-2.277,3.478,0.7752,0.5656,0.0126,-0.083,0.007,-0.026000000000000002
1670267521.559972,-9.282,-2.333,3.507,0.7779,0.5671,0.019200000000000002,-0.091,-0.004,-0.023
1670267521.599972,-9.401,-2.199,3.576,0.7812,0.5667,0.014400000000000001,-0.076,0.001,0.01
1670267521.639972,-9.362,-2.344,3.48,0.7804,0.5684,0.0126,-0.069,0.018000000000000002,-0.012
1670267521.679972,-9.271,-2.189,3.452,0.7765000000000001,0.5656,0.0145,-0.06,0.024,-0.032
1670267521.719972,-9.266,-2.338,3.444,0.7791,0.5671,0.0131,-0.08,0.014,-0.026000000000000002
1670267521.759972,-9.314,-2.311,3.443,0.7804,0.5680000000000001,0.0171,-0.10400000000000001,-0.001,-0.02
1670267521.799972,-9.325000000000001,-2.29,3.524,0.7817000000000001,0.5653,0.013300000000000001,-0.093,-0.012,-0.027
1670267521.839972,-9.302,-2.27,3.561,0.7812,0.5690000000000001,0.013300000000000001,-0.083,-0.007,-0.025
1670267521.879972,-9.295,-2.332,3.5140000000000002,0.7785000000000001,0.5694,0.015300000000000001,-0.067,-0.006,-0.016
1670267521.919971,-9.298,-2.314,3.496,0.7778,0.5650000000000001,0.013900000000000001,-0.073,0.004,-0.017
1670267521.959971,-9.309000000000001,-2.311,3.5220000000000002,0.7799,0.5697,0.0164,-0.075,0.007,-0.013000000000000001
1670267521.999971,-9.297,-2.315,3.501,0.7812,0.5691,0.015600000000000001,-0.074,0.005,-0.009000000000000001
1670267522.0399709,-9.26,-2.269,3.464,0.7787000000000001,0.5688,0.0155,-0.081,0.01,-0.013000000000000001
1670267522.079971,-9.314,-2.308,3.5340000000000003,0.7791,0.5691,0.0151,-0.07200000000000001,0.007,-0.014
1670267522.119971,-9.336,-2.307,3.513,0.782,0.5689000000000001,0.0152,-0.077,0.012,-0.013000000000000001
1670267522.159971,-9.342,-2.33,3.607,0.7811,0.5680000000000001,0.013600000000000001,-0.07100000000000001,0.012,-0.013000000000000001
1670267522.199971,-9.369,-2.277,3.59,0.7802,0.5699000000000001,0.019100000000000002,-0.062,0.018000000000000002,0.001
1670267522.239971,-9.381,-2.213,3.606,0.7807000000000001,0.5695,0.013000000000000001,0.032,0.07,-0.012
1670267522.279971,-9.208,-2.326,3.479,0.7806000000000001,0.5667,0.013900000000000001,0.001,0.067,-0.011
1670267522.319971,-9.311,-2.295,3.509,0.778,0.5683,0.0165,-0.056,0.02,-0.014
1670267522.359971,-9.343,-2.341,3.482,0.7823,0.5683,0.0162,-0.08,0.01,-0.021
1670267522.399971,-9.439,-2.178,3.519,0.7765000000000001,0.5678000000000001,0.015600000000000001,-0.07200000000000001,0.007,0.005
1670267522.439971,-9.289,-2.244,3.341,0.7807000000000001,0.5648000000000001,0.0137,-0.055,0.015,-0.008
1670267522.479971,-9.282,-2.227,3.431,0.7815000000000001,0.5658000000000001,0.015300000000000001,-0.051000000000000004,0.025,-0.03
1670267522.519971,-9.321,-2.303,3.3890000000000002,0.7812,0.5664,0.0143,-0.066,0.004,-0.02
1670267522.559971,-9.426,-2.35,3.509,0.7811,0.5661,0.0165,-0.094,-0.017,-0.006
1670267522.599971,-9.382,-2.317,3.5420000000000003,0.7814,0.5677,0.015000000000000001,-0.08700000000000001,-0.01,-0.014
1670267522.639971,-9.372,-2.231,3.551,0.7799,0.5676,0.0161,-0.069,-0.015,-0.016
1670267522.679971,-9.315,-2.311,3.483,0.7798,0.5655,0.0162,-0.066,0.002,-0.018000000000000002
1670267522.719971,-9.355,-2.289,3.537,0.7807000000000001,0.5688,0.0213,-0.078,-0.005,-0.003
1670267522.759971,-9.231,-2.319,3.388,0.7785000000000001,0.5659000000000001,0.014700000000000001,-0.12,-0.009000000000000001,-0.017
1670267522.799971,-9.498,-2.244,3.6630000000000003,0.7787000000000001,0.5644,0.016900000000000002,-0.165,-0.062,-0.015
1670267522.839971,-9.304,-2.2720000000000002,3.459,0.7812,0.5688,0.0148,-0.109,0.004,-0.009000000000000001
1670267522.879971,-9.301,-2.251,3.5020000000000002,0.7771,0.5667,0.0172,-0.078,0.007,-0.005
1670267522.919971,-9.371,-2.269,3.564,0.7796000000000001,0.5664,0.0162,-0.069,0.003,-0.018000000000000002
1670267522.95997,-9.291,-2.293,3.5020000000000002,0.7787000000000001,0.5696,0.0176,-0.07100000000000001,0.007,-0.013000000000000001
1670267522.99997,-9.315,-2.303,3.48,0.7777000000000001,0.5693,0.016900000000000002,-0.084,0.001,-0.008
1670267523.03997,-9.333,-2.278,3.543,0.7798,0.5666,0.0162,-0.079,-0.006,-0.01
1670267523.07997,-9.286,-2.289,3.5260000000000002,0.7822,0.5690000000000001,0.0178,-0.07,-0.005,-0.019
1670267523.11997,-9.290000000000001,-2.299,3.492,0.7755000000000001,0.5666,0.0381,-0.074,0.001,-0.017
1670267523.15997,-9.294,-2.372,3.512,0.7755000000000001,0.5674,0.038,-0.081,0.008,-0.018000000000000002
1670267523.19997,-9.294,-2.238,3.652,0.7786000000000001,0.5674,0.027800000000000002,-0.082,0.0,0.004
1670267523.23997,-9.373,-2.238,3.492,0.7808,0.5672,0.027800000000000002,-0.057,0.015,0.009000000000000001
1670267523.27997,-9.33,-2.295,3.492,0.7814,0.5681,0.007,-0.054,0.018000000000000002,-0.005
1670267523.31997,-9.3,-2.224,3.45,0.7774000000000001,0.5676,0.0054,-0.055,0.022,-0.025
1670267523.35997,-9.299,-2.333,3.548,0.7795000000000001,0.5695,0.0126,-0.092,-0.007,0.005
1670267523.39997,-9.309000000000001,-2.2880000000000003,3.515,0.7785000000000001,0.5655,-0.0034000000000000002,-0.093,-0.015,0.009000000000000001
1670267523.43997,-9.344,-2.245,3.6310000000000002,0.7785000000000001,0.5655,0.0041,-0.07200000000000001,0.003,-0.015
1670267523.47997,-9.36,-2.233,3.6350000000000002,0.7662,0.5636,0.0077,-0.061,0.01,-0.022
1670267523.51997,-9.301,-2.2680000000000002,3.5020000000000002,0.7786000000000001,0.5659000000000001,0.0189,-0.059000000000000004,0.017,-0.013000000000000001
1670267523.55997,-9.309000000000001,-2.287,3.466,0.7737,0.5670000000000001,0.0166,-0.074,0.014,-0.017
1670267523.59997,-9.358,-2.275,3.5340000000000003,0.781,0.5670000000000001,0.0164,-0.085,0.003,-0.012
1670267523.63997,-9.299,-2.2600000000000002,3.553,0.7785000000000001,0.5706,0.0173,-0.08700000000000001,-0.01,-0.008
1670267523.67997,-9.372,-2.248,3.563,0.779,0.5660000000000001,0.015300000000000001,-0.065,-0.003,-0.015
1670267523.71997,-9.308,-2.239,3.549,0.7812,0.5644,0.015300000000000001,-0.065,0.007,-0.015
1670267523.75997,-9.313,-2.277,3.525,0.7812,0.5670000000000001,0.0172,-0.07100000000000001,0.009000000000000001,-0.014
1670267523.79997,-9.321,-2.305,3.5580000000000003,0.7778,0.5669000000000001,0.0188,-0.08,0.003,-0.01
1670267523.83997,-9.312,-2.2560000000000002,3.474,0.7791,0.5674,0.0217,-0.078,0.003,-0.013000000000000001
1670267523.87997,-9.339,-2.254,3.5660000000000003,0.7797000000000001,0.5690000000000001,0.0164,-0.07200000000000001,0.004,-0.024
1670267523.91997,-9.306000000000001,-2.289,3.572,0.7782,0.5672,0.0145,-0.078,-0.005,-0.021
1670267523.95997,-9.333,-2.283,3.533,0.7821,0.5659000000000001,0.0125,-0.079,0.002,-0.021
1670267523.999969,-9.273,-2.312,3.465,0.7811,0.5694,0.019700000000000002,-0.08700000000000001,-0.008,0.001
1670267524.039969,-9.364,-2.158,3.5220000000000002,0.7763,0.5647,0.0161,-0.059000000000000004,0.018000000000000002,0.001
1670267524.079969,-9.339,-2.254,3.564,0.7812,0.5677,0.0151,-0.057,0.035,-0.02
1670267524.119969,-9.276,-2.248,3.527,0.7702,0.5636,0.026000000000000002,-0.062,0.036000000000000004,-0.032
1670267524.159969,-9.312,-2.356,3.505,0.7802,0.5675,0.0161,-0.105,0.003,-0.006
1670267524.199969,-9.335,-2.322,3.5140000000000002,0.7778,0.5639000000000001,0.020200000000000003,-0.12,-0.002,0.007
1670267524.239969,-9.299,-2.243,3.5220000000000002,0.7821,0.5687,0.0162,-0.091,0.007,-0.015
1670267524.279969,-9.325000000000001,-2.204,3.632,0.7811,0.5680000000000001,0.0177,-0.065,0.014,-0.012
1670267524.319969,-9.319,-2.285,3.5460000000000003,0.7785000000000001,0.5666,0.0148,-0.06,0.025,-0.004
1670267524.359969,-9.308,-2.266,3.4490000000000003,0.7781,0.5680000000000001,0.0152,-0.074,0.024,0.002
1670267524.399969,-9.344,-2.261,3.5100000000000002,0.7831,0.5667,0.013800000000000002,-0.081,0.02,-0.002
1670267524.439969,-9.338000000000001,-2.238,3.528,0.7811,0.5689000000000001,0.013600000000000001,-0.073,0.005,0.001
1670267524.479969,-9.356,-2.228,3.476,0.7795000000000001,0.5670000000000001,0.0177,-0.075,0.009000000000000001,-0.012
1670267524.519969,-9.357,-2.25,3.505,0.7782,0.5677,0.0158,-0.08,0.001,-0.019
1670267524.559969,-9.343,-2.285,3.565,0.7793,0.5653,0.0165,-0.089,-0.001,-0.019
1670267524.599969,-9.308,-2.257,3.483,0.7834,0.5657,0.0167,-0.08600000000000001,-0.002,-0.018000000000000002
1670267524.639969,-9.34,-2.25,3.5020000000000002,0.7822,0.5692,0.0181,-0.08700000000000001,0.0,-0.011
1670267524.679969,-9.339,-2.238,3.489,0.7817000000000001,0.5667,0.015300000000000001,-0.07,0.0,-0.016
1670267524.719969,-9.34,-2.273,3.571,0.7829,0.5667,0.0161,-0.078,0.003,-0.014
1670267524.759969,-9.337,-2.277,3.559,0.7793,0.5700000000000001,0.015700000000000002,-0.07100000000000001,0.002,-0.018000000000000002
1670267524.799969,-9.261000000000001,-2.311,3.4290000000000003,0.7817000000000001,0.5660000000000001,0.0162,-0.089,-0.006,-0.006
1670267524.839969,-9.411,-2.177,3.5500000000000003,0.7817000000000001,0.5681,0.0148,-0.081,0.001,0.013000000000000001
1670267524.879969,-9.312,-2.298,3.455,0.7779,0.5664,0.016800000000000002,-0.07200000000000001,0.021,-0.016
1670267524.9199688,-9.286,-2.199,3.474,0.7777000000000001,0.5653,0.0155,-0.059000000000000004,0.019,-0.027
1670267524.959969,-9.314,-2.308,3.414,0.7784000000000001,0.5671,0.0166,-0.091,0.0,-0.026000000000000002
1670267524.999969,-9.347,-2.31,3.517,0.7804,0.5679000000000001,0.0176,-0.105,-0.014,-0.003
1670267525.039968,-9.274000000000001,-2.255,3.476,0.7795000000000001,0.5656,0.017400000000000002,-0.09,-0.009000000000000001,-0.018000000000000002
1670267525.079968,-9.338000000000001,-2.254,3.597,0.7846000000000001,0.5677,0.0149,-0.064,-0.007,-0.025
1670267525.119968,-9.370000000000001,-2.47,3.552,0.7801,0.5701,0.0151,-0.147,0.062,-0.001
1670267525.159968,-9.275,-2.215,3.443,0.7802,0.5671,0.0131,-0.19,0.041,0.032
1670267525.199968,-9.379,-2.225,3.461,0.7846000000000001,0.5677,0.013600000000000001,-0.129,0.017,0.004
1670267525.239968,-9.309000000000001,-2.259,3.452,0.7824,0.5707,0.0134,-0.092,0.009000000000000001,0.0
1670267525.279968,-9.364,-2.226,3.492,0.7785000000000001,0.5647,0.012,-0.067,0.012,-0.018000000000000002
1670267525.319968,-9.339,-2.267,3.399,0.7845000000000001,0.5675,0.012700000000000001,-0.073,0.008,-0.006
1670267525.359968,-9.352,-2.245,3.332,0.7857000000000001,0.5695,0.014700000000000001,-0.083,-0.001,-0.004
1670267525.399968,-9.396,-2.263,3.483,0.7818,0.5650000000000001,0.0114,-0.088,-0.003,-0.01
1670267525.439968,-9.321,-2.2760000000000002,3.395,0.7827000000000001,0.5689000000000001,0.0154,-0.07200000000000001,-0.008,-0.014
1670267525.479968,-9.375,-2.275,3.497,0.784,0.5696,0.013000000000000001,-0.067,-0.007,-0.019
1670267525.519968,-9.311,-2.301,3.485,0.781,0.5675,0.0125,-0.07200000000000001,-0.005,-0.022
1670267525.559968,-9.364,-2.318,3.468,0.7824,0.5664,0.013600000000000001,-0.073,0.0,-0.019
1670267525.599968,-9.288,-2.234,3.465,0.7799,0.5703,0.014400000000000001,-0.049,-0.026000000000000002,-0.018000000000000002
1670267525.639968,-9.450000000000001,-2.249,3.653,0.7767000000000001,0.5671,0.0216,0.069,-0.054,-0.028
1670267525.679968,-9.344,-2.306,3.5220000000000002,0.7788,0.5652,0.0137,-0.003,0.002,-0.014
1670267525.719968,-9.218,-2.2560000000000002,3.489,0.7838,0.5674,0.015300000000000001,-0.032,0.036000000000000004,-0.042
1670267525.759968,-9.322000000000001,-2.332,3.444,0.7812,0.5655,0.014700000000000001,-0.07100000000000001,0.012,-0.026000000000000002
1670267525.799968,-9.379,-2.286,3.5460000000000003,0.7813,0.5662,0.014700000000000001,-0.10400000000000001,-0.002,0.005
1670267525.839968,-9.278,-2.241,3.483,0.7841,0.5686,0.0184,-0.101,-0.001,-0.01
1670267525.879968,-9.334,-2.212,3.5820000000000003,0.7801,0.5641,0.0149,-0.073,0.0,-0.018000000000000002
1670267525.919968,-9.325000000000001,-2.275,3.479,0.7794000000000001,0.5658000000000001,0.0131,-0.057,0.007,-0.021
1670267525.9599679,-9.308,-2.278,3.4490000000000003,0.784,0.5694,0.0158,-0.074,0.013000000000000001,-0.015
1670267525.999968,-9.329,-2.289,3.5740000000000003,0.7802,0.5689000000000001,0.0159,-0.085,0.008,-0.014
1670267526.039968,-9.32,-2.248,3.508,0.7777000000000001,0.5664,0.0122,-0.08600000000000001,0.004,-0.004
1670267526.079967,-9.326,-2.251,3.471,0.7838,0.5652,0.0177,-0.078,0.005,-0.01
1670267526.119967,-9.329,-2.257,3.476,0.7814,0.5673,0.0159,-0.07200000000000001,0.013000000000000001,-0.015
1670267526.159967,-9.35,-2.2800000000000002,3.539,0.7817000000000001,0.5663,0.0131,-0.079,0.01,-0.016
1670267526.199967,-9.296,-2.279,3.528,0.7845000000000001,0.5684,0.014700000000000001,-0.077,0.005,-0.011
1670267526.239967,-9.306000000000001,-2.251,3.495,0.7788,0.5656,0.013900000000000001,-0.079,0.003,-0.015
1670267526.279967,-9.319,-2.2520000000000002,3.482,0.7763,0.5652,0.0213,-0.074,0.004,-0.014
1670267526.319967,-9.352,-2.2640000000000002,3.598,0.7794000000000001,0.5658000000000001,0.016800000000000002,-0.055,-0.003,-0.019
1670267526.359967,-9.249,-2.342,3.481,0.7811,0.5695,0.0158,-0.081,-0.001,-0.02
1670267526.399967,-9.36,-2.231,3.5340000000000003,0.779,0.5673,0.017,-0.076,-0.004,0.0
1670267526.439967,-9.36,-2.262,3.5780000000000003,0.7829,0.5690000000000001,0.013000000000000001,-0.057,0.017,0.002
1670267526.479967,-9.312,-2.205,3.52,0.7801,0.5653,0.0172,-0.057,0.015,-0.012
1670267526.519967,-9.332,-2.299,3.481,0.7776000000000001,0.5667,0.012400000000000001,-0.07100000000000001,0.021,-0.028
1670267526.559967,-9.311,-2.335,3.5300000000000002,0.7807000000000001,0.5694,0.017,-0.10200000000000001,0.005,-0.013000000000000001
1670267526.599967,-9.294,-2.201,3.462,0.7796000000000001,0.5690000000000001,0.0181,-0.11,-0.004,0.002
1670267526.639967,-9.324,-2.236,3.498,0.7804,0.5660000000000001,0.016,-0.081,-0.006,-0.012
1670267526.679967,-9.34,-2.253,3.583,0.781,0.5680000000000001,0.0057,-0.06,0.0,-0.018000000000000002
1670267526.719967,-9.333,-2.29,3.477,0.7812,0.5668000000000001,0.0159,-0.058,0.005,-0.012
1670267526.7599669,-9.339,-2.277,3.45,0.7776000000000001,0.5662,0.0063,-0.07200000000000001,0.011,-0.015
1670267526.799967,-9.339,-2.245,3.5140000000000002,0.7776000000000001,0.5680000000000001,0.0236,-0.078,0.007,-0.003
1670267526.839967,-9.335,-2.245,3.484,0.7763,0.5680000000000001,0.0236,-0.091,0.007,-0.006
1670267526.879967,-9.304,-2.21,3.484,0.78,0.5692,0.0,-0.077,0.008,-0.019
1670267526.919967,-9.336,-2.241,3.512,0.7642,0.562,0.0347,-0.077,0.009000000000000001,-0.019
1670267526.959967,-9.302,-2.246,3.485,0.778,0.5667,0.010100000000000001,-0.085,0.007,-0.012
1670267526.9999669,-9.283,-2.295,3.492,0.7774000000000001,0.5671,0.0216,-0.084,0.003,-0.003
1670267527.039967,-9.338000000000001,-2.263,3.511,0.7802,0.5642,0.016900000000000002,-0.09,0.009000000000000001,-0.008
1670267527.079967,-9.373,-2.239,3.5740000000000003,0.7817000000000001,0.5653,0.0258,-0.085,0.021,-0.014
1670267527.119967,-9.33,-2.3000000000000003,3.584,0.7783,0.5692,0.0172,-0.079,0.019,-0.015
1670267527.159967,-9.338000000000001,-2.3000000000000003,3.505,0.7788,0.5659000000000001,0.0155,-0.085,0.008,-0.015
1670267527.199966,-9.314,-2.315,3.537,0.7832,0.5674,0.0151,-0.093,-0.002,-0.001
1670267527.239966,-9.443,-2.1630000000000003,3.553,0.7806000000000001,0.5700000000000001,0.0175,-0.074,0.023,0.001
1670267527.279966,-9.331,-2.2600000000000002,3.5020000000000002,0.7823,0.5664,0.0158,-0.068,0.029,-0.021
1670267527.319966,-9.323,-2.248,3.483,0.7808,0.5646,0.0159,-0.07100000000000001,0.014,-0.032
1670267527.359966,-9.307,-2.293,3.4010000000000002,0.7835000000000001,0.5691,0.0179,-0.105,-0.005,-0.01
1670267527.399966,-9.371,-2.269,3.48,0.7805000000000001,0.5678000000000001,0.014100000000000001,-0.10300000000000001,-0.015,-0.002
1670267527.439966,-9.3,-2.257,3.5060000000000002,0.7831,0.5678000000000001,0.0148,-0.074,-0.007,-0.022
1670267527.479966,-9.31,-2.227,3.549,0.781,0.5670000000000001,0.0167,-0.064,-0.002,-0.026000000000000002
1670267527.519966,-9.351,-2.303,3.5460000000000003,0.7806000000000001,0.5677,0.0161,-0.061,0.003,-0.014
1670267527.5599658,-9.327,-2.305,3.552,0.7679,0.5613,0.0224,-0.077,0.005,-0.008
1670267527.599966,-9.34,-2.266,3.564,0.7812,0.5679000000000001,0.0161,-0.074,0.004,-0.002
1670267527.639966,-9.323,-2.254,3.5340000000000003,0.779,0.5685,0.0224,-0.07200000000000001,0.001,-0.013000000000000001
1670267527.679966,-9.352,-2.257,3.5140000000000002,0.7809,0.5672,0.013000000000000001,-0.08,0.003,-0.021
1670267527.719966,-9.33,-2.287,3.5220000000000002,0.7824,0.5712,0.0158,-0.093,0.004,-0.016
1670267527.759966,-9.312,-2.266,3.5340000000000003,0.7806000000000001,0.5678000000000001,0.0175,-0.084,0.002,-0.016
1670267527.7999659,-9.327,-2.2640000000000002,3.483,0.7782,0.5659000000000001,0.0148,-0.078,0.005,-0.02
1670267527.839966,-9.309000000000001,-2.2600000000000002,3.44,0.7821,0.5668000000000001,0.0135,-0.081,0.001,-0.012
1670267527.879966,-9.293000000000001,-2.2720000000000002,3.524,0.7825000000000001,0.5677,0.017,-0.074,0.0,-0.013000000000000001
1670267527.919966,-9.314,-2.326,3.5260000000000002,0.7817000000000001,0.5671,0.0159,-0.076,0.0,-0.01
1670267527.959966,-9.325000000000001,-2.2560000000000002,3.511,0.7822,0.5703,0.0164,-0.009000000000000001,0.052000000000000005,0.003
1670267527.999966,-9.515,-2.1590000000000003,3.614,0.7811,0.5689000000000001,0.017,0.02,0.088,-0.001
1670267528.0399659,-9.27,-2.323,3.306,0.7793,0.5639000000000001,0.015600000000000001,-0.027,0.035,-0.012
1670267528.079966,-9.345,-2.217,3.479,0.7829,0.5682,0.0162,-0.07200000000000001,0.029,-0.03
1670267528.119966,-9.353,-2.287,3.444,0.7829,0.5667,0.015000000000000001,-0.096,0.01,-0.009000000000000001
1670267528.159966,-9.376,-2.24,3.4450000000000003,0.7813,0.5653,0.015000000000000001,-0.094,-0.019,-0.002
1670267528.199966,-9.284,-2.197,3.446,0.7841,0.5700000000000001,0.0143,-0.064,-0.015,-0.024
1670267528.239965,-9.274000000000001,-2.259,3.496,0.7837000000000001,0.5648000000000001,0.0142,-0.066,-0.013000000000000001,-0.02
1670267528.279965,-9.302,-2.278,3.504,0.7782,0.5672,0.018000000000000002,-0.045,0.001,-0.01
1670267528.319965,-9.196,-2.221,3.434,0.7799,0.5681,0.016800000000000002,-0.082,-0.01,-0.012
1670267528.3599648,-9.23,-2.199,3.508,0.7765000000000001,0.5663,0.0187,-0.073,-0.007,-0.012
1670267528.399965,-9.335,-2.205,3.54,0.7804,0.5650000000000001,0.0142,-0.073,0.005,-0.007
1670267528.439965,-9.394,-2.238,3.438,0.7787000000000001,0.5652,0.0154,-0.063,0.017,-0.021
1670267528.479965,-9.433,-2.278,3.49,0.7836000000000001,0.5685,0.014700000000000001,-0.07200000000000001,0.013000000000000001,-0.02
1670267528.519965,-9.322000000000001,-2.258,3.481,0.7788,0.5678000000000001,0.015000000000000001,-0.09,0.004,-0.01
1670267528.559965,-9.41,-2.209,3.487,0.7828,0.5647,0.0164,-0.107,-0.003,-0.014
1670267528.5999649,-9.244,-2.32,3.423,0.7841,0.5662,0.0146,-0.159,-0.058,-0.032
1670267528.639965,-9.386000000000001,-2.207,3.556,0.7796000000000001,0.5669000000000001,0.0161,-0.117,-0.005,-0.016
1670267528.679965,-9.309000000000001,-2.278,3.498,0.7813,0.5673,0.015700000000000002,-0.091,0.0,-0.01
1670267528.719965,-9.315,-2.2920000000000003,3.519,0.7798,0.5672,0.0187,-0.082,-0.019,-0.018000000000000002
1670267528.759965,-9.401,-2.179,3.5660000000000003,0.7787000000000001,0.5683,0.0148,-0.061,-0.004,-0.001
1670267528.799965,-9.355,-2.2840000000000003,3.545,0.7802,0.5655,0.0158,-0.053,0.013000000000000001,-0.012
1670267528.8399649,-9.235,-2.2640000000000002,3.418,0.781,0.5681,0.016800000000000002,-0.06,0.023,-0.03
1670267528.879965,-9.366,-2.355,3.5740000000000003,0.7794000000000001,0.5670000000000001,0.0175,-0.08600000000000001,0.011,-0.025
1670267528.919965,-9.321,-2.323,3.571,0.7813,0.5672,0.0154,-0.099,-0.016,0.004
1670267528.959965,-9.322000000000001,-2.285,3.5300000000000002,0.781,0.5684,0.0161,-0.085,-0.016,-0.005
1670267528.999965,-9.352,-2.181,3.677,0.7804,0.5691,0.019,-0.056,0.001,-0.005
1670267529.039965,-9.332,-2.277,3.614,0.7763,0.5670000000000001,0.0154,-0.051000000000000004,0.017,-0.009000000000000001
1670267529.0799649,-9.302,-2.287,3.493,0.783,0.5699000000000001,0.015300000000000001,-0.066,0.028,-0.011
1670267529.119965,-9.329,-2.269,3.5060000000000002,0.7793,0.5656,0.0143,-0.078,0.022,-0.018000000000000002
1670267529.159965,-9.346,-2.274,3.498,0.7802,0.5679000000000001,0.0167,-0.093,0.008,-0.007
1670267529.199965,-9.338000000000001,-2.245,3.505,0.7843,0.5655,0.018600000000000002,-0.084,0.0,-0.014
1670267529.239965,-9.336,-2.274,3.481,0.7815000000000001,0.5671,0.015600000000000001,-0.082,-0.001,-0.018000000000000002
1670267529.279964,-9.332,-2.258,3.5260000000000002,0.781,0.5652,0.016,-0.077,-0.003,-0.017
1670267529.319964,-9.307,-2.2520000000000002,3.498,0.7806000000000001,0.5682,0.0172,-0.065,-0.007,-0.002
1670267529.359964,-9.354000000000001,-2.2560000000000002,3.5660000000000003,0.7812,0.5679000000000001,0.0177,-0.064,-0.007,-0.01
1670267529.3999639,-9.317,-2.251,3.545,0.781,0.5649000000000001,0.016900000000000002,-0.059000000000000004,0.0,-0.015
1670267529.439964,-9.323,-2.2680000000000002,3.483,0.7822,0.5677,0.019100000000000002,-0.068,0.005,-0.015
1670267529.479964,-9.258000000000001,-2.317,3.504,0.782,0.5684,0.0188,-0.092,-0.005,-0.026000000000000002
1670267529.519964,-9.302,-2.153,3.5780000000000003,0.7804,0.5656,0.015600000000000001,-0.093,-0.016,0.0
1670267529.559964,-9.34,-2.257,3.537,0.7842,0.5665,0.0161,-0.077,0.002,-0.011
1670267529.599964,-9.272,-2.199,3.464,0.7829,0.5674,0.018000000000000002,-0.064,0.016,-0.024
1670267529.6399639,-9.241,-2.2880000000000003,3.482,0.7798,0.5673,0.0201,-0.083,0.016,-0.026000000000000002
1670267529.679964,-9.327,-2.313,3.501,0.7799,0.5681,0.0158,-0.107,0.007,-0.007
1670267529.719964,-9.3,-2.235,3.533,0.7826000000000001,0.5692,0.02,-0.106,0.003,-0.007
1670267529.759964,-9.288,-2.213,3.544,0.7797000000000001,0.5663,0.0166,-0.082,0.012,-0.015
1670267529.799964,-9.296,-2.297,3.461,0.7797000000000001,0.5694,0.0145,-0.07,0.017,-0.02
1670267529.839964,-9.331,-2.3000000000000003,3.517,0.7796000000000001,0.5669000000000001,0.0155,-0.082,0.022,-0.012
1670267529.8799639,-9.312,-2.255,3.523,0.7848,0.5684,0.0178,-0.089,0.016,0.0
1670267529.919964,-9.328,-2.262,3.533,0.7819,0.5672,0.0151,-0.093,0.011,0.002
1670267529.959964,-9.34,-2.225,3.481,0.7824,0.5666,0.0162,-0.085,0.009000000000000001,-0.007
1670267529.999964,-9.372,-2.247,3.5100000000000002,0.7802,0.5656,0.0161,-0.074,0.01,-0.02
1670267530.039964,-9.342,-2.261,3.52,0.7829,0.5661,0.012,-0.077,0.003,-0.021
1670267530.079964,-9.257,-2.269,3.428,0.7825000000000001,0.5666,0.0176,-0.082,0.0,-0.012
1670267530.119964,-9.299,-2.239,3.4290000000000003,0.7826000000000001,0.5663,0.016,-0.08700000000000001,-0.012,-0.012
1670267530.159964,-9.355,-2.261,3.544,0.7822,0.5695,0.016900000000000002,-0.076,-0.007,-0.013000000000000001
1670267530.199964,-9.355,-2.289,3.61,0.7828,0.5681,0.0161,-0.08,0.003,-0.019
1670267530.239964,-9.282,-2.312,3.481,0.7804,0.5689000000000001,0.0159,-0.083,0.002,-0.019
1670267530.279964,-9.275,-2.278,3.443,0.7819,0.5670000000000001,0.027100000000000003,-0.08,-0.007,-0.019
1670267530.319963,-9.404,-2.198,3.565,0.7643000000000001,0.5639000000000001,0.0039000000000000003,-0.075,-0.001,0.006
1670267530.359963,-9.341000000000001,-2.257,3.604,0.7748,0.5635,0.0045000000000000005,-0.066,0.026000000000000002,-0.006
1670267530.399963,-9.341000000000001,-2.257,3.452,0.7748,0.5661,0.021400000000000002,-0.062,0.032,-0.021
1670267530.4399629,-9.233,-2.257,3.486,0.7814,0.5661,0.007500000000000001,-0.085,0.014,-0.021
1670267530.479963,-9.317,-2.309,3.486,0.7806000000000001,0.5678000000000001,0.007500000000000001,-0.097,-0.006,-0.005
1670267530.519963,-9.382,-2.266,3.54,0.7799,0.5657,0.0164,-0.093,-0.004,-0.02
1670267530.559963,-9.32,-2.286,3.524,0.7822,0.5689000000000001,0.017,-0.068,-0.004,-0.018000000000000002
1670267530.599963,-9.309000000000001,-2.241,3.549,0.7835000000000001,0.5678000000000001,0.01,-0.064,0.004,-0.016
1670267530.639963,-9.311,-2.261,3.511,0.7792,0.5685,0.033,-0.079,0.009000000000000001,-0.004
1670267530.6799629,-9.326,-2.301,3.519,0.7785000000000001,0.5674,0.0151,-0.076,0.01,-0.005
1670267530.719963,-9.335,-2.25,3.485,0.78,0.5699000000000001,0.0148,-0.08,0.007,-0.018000000000000002
1670267530.759963,-9.306000000000001,-2.242,3.495,0.7807000000000001,0.5666,0.0171,-0.077,0.002,-0.014
1670267530.799963,-9.323,-2.2800000000000002,3.484,0.7807000000000001,0.5675,0.016900000000000002,-0.111,0.04,-0.005
1670267530.839963,-9.395,-2.571,3.6870000000000003,0.7833,0.5666,0.015300000000000001,-0.242,0.05,0.05
1670267530.879963,-9.325000000000001,-2.215,3.438,0.7824,0.5680000000000001,0.013600000000000001,-0.218,-0.021,0.037
1670267530.919963,-9.366,-2.241,3.373,0.7818,0.5681,0.012700000000000001,-0.156,-0.023,0.033
1670267530.959963,-9.34,-2.16,3.418,0.7852,0.5686,0.0106,-0.10200000000000001,-0.006,0.005
1670267530.999963,-9.375,-2.219,3.483,0.7688,0.5636,0.018000000000000002,-0.045,0.012,-0.031
1670267531.039963,-9.388,-2.251,3.493,0.7824,0.5667,0.011000000000000001,-0.041,0.024,-0.038
1670267531.079963,-9.339,-2.335,3.447,0.7812,0.5647,0.018500000000000003,-0.056,0.0,-0.018000000000000002
1670267531.119963,-9.38,-2.235,3.512,0.7824,0.5662,0.0151,-0.055,0.006,0.004
1670267531.159963,-9.346,-2.2960000000000003,3.476,0.7813,0.5668000000000001,0.0126,-0.059000000000000004,0.007,-0.014
1670267531.199963,-9.305,-2.242,3.469,0.7801,0.5695,0.0129,-0.06,0.013000000000000001,-0.034
1670267531.239963,-9.355,-2.327,3.4450000000000003,0.7815000000000001,0.5691,0.013300000000000001,-0.084,0.011,-0.023
1670267531.279963,-9.351,-2.2880000000000003,3.501,0.7825000000000001,0.5689000000000001,0.0119,-0.084,0.003,-0.005
1670267531.319963,-9.286,-2.228,3.47,0.7845000000000001,0.5691,0.015300000000000001,-0.065,-0.013000000000000001,-0.025
1670267531.359962,-9.236,-2.056,3.431,0.7824,0.5669000000000001,0.0158,0.055,-0.076,-0.051000000000000004
1670267531.399962,-9.448,-2.4290000000000003,3.527,0.7795000000000001,0.5687,0.0159,-0.003,-0.005,-0.019
1670267531.439962,-9.357,-2.235,3.604,0.7831,0.5675,0.0134,-0.051000000000000004,0.032,-0.021
1670267531.4799619,-9.318,-2.333,3.494,0.7841,0.5681,0.0148,-0.07200000000000001,0.009000000000000001,-0.005
1670267531.519962,-9.336,-2.245,3.541,0.7825000000000001,0.5688,0.017,-0.085,0.0,-0.006
1670267531.559962,-9.31,-2.251,3.476,0.778,0.5647,0.018500000000000003,-0.078,0.002,-0.021
1670267531.599962,-9.335,-2.209,3.528,0.781,0.5661,0.017,-0.07200000000000001,0.006,-0.024
1670267531.639962,-9.372,-2.287,3.598,0.7816000000000001,0.5677,0.016300000000000002,-0.077,0.005,-0.023
1670267531.679962,-9.303,-2.2680000000000002,3.5100000000000002,0.7826000000000001,0.5670000000000001,0.014400000000000001,-0.075,-0.001,-0.016
1670267531.719962,-9.352,-2.259,3.533,0.784,0.5664,0.0123,-0.083,0.003,-0.012
1670267531.759962,-9.338000000000001,-2.243,3.5100000000000002,0.7779,0.5661,0.0167,-0.073,0.004,-0.014
1670267531.799962,-9.325000000000001,-2.2560000000000002,3.5180000000000002,0.7818,0.5697,0.0149,-0.066,0.001,-0.017
1670267531.839962,-9.296,-2.305,3.5060000000000002,0.7834,0.5689000000000001,0.016800000000000002,-0.076,-0.003,-0.017
1670267531.879962,-9.273,-2.271,3.479,0.7796000000000001,0.5669000000000001,0.0189,-0.078,-0.008,-0.004
1670267531.919962,-9.398,-2.188,3.616,0.7833,0.5692,0.0173,-0.065,0.008,-0.002
1670267531.959962,-9.309000000000001,-2.197,3.515,0.781,0.5659000000000001,0.0173,-0.051000000000000004,0.016,-0.024
1670267531.999962,-9.305,-2.262,3.478,0.7821,0.5692,0.0189,-0.067,0.02,-0.035
1670267532.039962,-9.352,-2.335,3.567,0.7841,0.5653,0.0142,-0.101,0.006,-0.012
1670267532.079962,-9.33,-2.248,3.503,0.7812,0.5669000000000001,0.018000000000000002,-0.101,-0.005,0.002
1670267532.119962,-9.284,-2.265,3.516,0.7791,0.5668000000000001,0.0165,-0.075,-0.004,-0.014
1670267532.159962,-9.33,-2.211,3.586,0.781,0.5672,0.0166,-0.053,-0.001,-0.018000000000000002
1670267532.199962,-9.358,-2.266,3.552,0.7813,0.5700000000000001,0.018600000000000002,-0.062,0.007,-0.011
1670267532.239962,-9.303,-2.273,3.4130000000000003,0.782,0.5675,0.015600000000000001,-0.074,0.014,-0.014
1670267532.279962,-9.349,-2.255,3.61,0.7816000000000001,0.5666,0.0162,-0.08600000000000001,0.013000000000000001,-0.011
1670267532.319962,-9.297,-2.239,3.49,0.7846000000000001,0.5695,0.0178,-0.085,0.005,-0.006
1670267532.359962,-9.321,-2.232,3.513,0.7795000000000001,0.5642,0.0152,-0.073,0.008,-0.016
1670267532.399961,-9.269,-2.232,3.446,0.7813,0.5668000000000001,0.0178,-0.081,0.017,-0.013000000000000001
1670267532.439961,-9.32,-2.2840000000000003,3.528,0.7817000000000001,0.5689000000000001,0.0152,-0.083,0.01,-0.016
1670267532.479961,-9.325000000000001,-2.267,3.5660000000000003,0.7851,0.5666,0.0159,-0.089,0.007,-0.012
1670267532.5199609,-9.33,-2.254,3.52,0.7805000000000001,0.5647,0.0148,-0.082,0.006,-0.007
1670267532.559961,-9.337,-2.251,3.489,0.783,0.5681,0.0167,-0.07,0.013000000000000001,-0.017
1670267532.599961,-9.338000000000001,-2.2520000000000002,3.548,0.7807000000000001,0.5674,0.0175,-0.07200000000000001,0.013000000000000001,-0.018000000000000002
1670267532.639961,-9.324,-2.316,3.486,0.7834,0.5668000000000001,0.0167,-0.091,0.01,-0.005
1670267532.679961,-9.3,-2.213,3.465,0.7801,0.5685,0.0173,-0.088,-0.003,-0.003
1670267532.719961,-9.395,-2.215,3.555,0.7842,0.5662,0.0159,-0.073,0.022,0.009000000000000001
1670267532.759961,-9.34,-2.185,3.5100000000000002,0.7826000000000001,0.5663,0.014,-0.068,0.025,-0.028
1670267532.799961,-9.32,-2.306,3.52,0.7841,0.5680000000000001,0.0151,-0.077,0.017,-0.038
1670267532.839961,-9.369,-2.309,3.459,0.7815000000000001,0.5658000000000001,0.0149,-0.107,-0.008,-0.008
1670267532.799961,-9.344,-2.207,3.49,0.7814,0.5661,0.016800000000000002,-0.101,-0.013000000000000001,-0.001
1670267532.839961,-9.278,-2.27,3.454,0.7806000000000001,0.5683,0.0176,-0.088,-0.008,-0.023
1670267532.879961,-9.352,-2.232,3.608,0.7827000000000001,0.5667,0.0151,-0.07,0.001,-0.026000000000000002
1670267532.919961,-9.372,-2.283,3.561,0.7813,0.5678000000000001,0.013000000000000001,-0.067,0.006,-0.016
1670267532.959961,-9.352,-2.2920000000000003,3.497,0.7853,0.5678000000000001,0.015000000000000001,-0.075,0.016,-0.006
1670267532.999961,-9.316,-2.245,3.532,0.7819,0.5661,0.014700000000000001,-0.082,0.009000000000000001,-0.01
1670267533.039961,-9.316,-2.236,3.501,0.7738,0.5639000000000001,0.0155,-0.082,0.006,-0.016
1670267533.079961,-9.352,-2.254,3.471,0.783,0.5666,0.015000000000000001,-0.091,0.002,-0.015
1670267533.119961,-9.333,-2.236,3.44,0.7803,0.5684,0.014700000000000001,-0.08,0.005,-0.021
1670267533.159961,-9.282,-2.248,3.455,0.7821,0.5678000000000001,0.0137,-0.081,0.003,-0.017
1670267533.199961,-9.329,-2.281,3.479,0.7833,0.5689000000000001,0.0128,-0.079,-0.001,-0.014
1670267533.239961,-9.342,-2.265,3.505,0.7826000000000001,0.5687,0.0142,-0.073,-0.005,-0.013000000000000001
1670267533.279961,-9.261000000000001,-2.248,3.498,0.7811,0.5677,0.016,-0.07200000000000001,0.0,-0.018000000000000002
1670267533.319961,-9.3,-2.291,3.481,0.7818,0.5680000000000001,0.0161,-0.07100000000000001,0.0,-0.016
1670267533.359961,-9.291,-2.311,3.531,0.7804,0.5686,0.0164,-0.083,-0.007,-0.016
1670267533.399961,-9.367,-2.185,3.556,0.7821,0.5681,0.0158,-0.07200000000000001,0.004,0.001
1670267533.43996,-9.357,-2.275,3.543,0.7824,0.5689000000000001,0.018600000000000002,-0.063,0.02,-0.005
1670267533.47996,-9.278,-2.254,3.432,0.7817000000000001,0.5687,0.015300000000000001,-0.067,0.027,-0.027
1670267533.51996,-9.312,-2.305,3.43,0.7766000000000001,0.5673,0.0178,-0.078,0.016,-0.02
1670267533.55996,-9.44,-2.122,3.653,0.7846000000000001,0.5670000000000001,0.0129,-0.052000000000000005,0.019,0.027
1670267533.59996,-9.346,-2.215,3.486,0.7823,0.5661,0.016900000000000002,0.08700000000000001,0.127,-0.015
1670267533.63996,-9.285,-2.2560000000000002,3.407,0.7821,0.5653,0.016800000000000002,0.013000000000000001,0.046,-0.07100000000000001
1670267533.67996,-9.394,-2.298,3.414,0.7683,0.5638000000000001,0.022000000000000002,-0.034,0.054,-0.062
1670267533.71996,-9.329,-2.286,3.341,0.7832,0.5680000000000001,0.019100000000000002,-0.069,0.021,-0.018000000000000002
1670267533.75996,-9.354000000000001,-2.233,3.485,0.7826000000000001,0.5673,0.0162,-0.098,0.015,0.006
1670267533.79996,-9.353,-2.201,3.4130000000000003,0.7813,0.5676,0.0046,-0.088,-0.001,0.002
1670267533.83996,-9.354000000000001,-2.221,3.391,0.7824,0.5674,-0.00030000000000000003,-0.078,-0.003,-0.022
1670267533.87996,-9.338000000000001,-2.241,3.37,0.7799,0.5666,0.0097,-0.065,0.003,-0.024
1670267533.91996,-9.338000000000001,-2.275,3.483,0.7799,0.5668000000000001,0.0367,-0.082,-0.008,-0.016
1670267533.95996,-9.376,-2.275,3.484,0.781,0.5668000000000001,0.0205,-0.078,-0.009000000000000001,-0.016
1670267533.99996,-9.348,-2.255,3.484,0.7811,0.5678000000000001,0.0205,-0.077,-0.007,-0.008
1670267534.03996,-9.352,-2.239,3.498,0.7823,0.5643,0.032100000000000004,-0.076,0.005,-0.012
1670267534.07996,-9.326,-2.262,3.495,0.7794000000000001,0.5655,0.028800000000000003,-0.075,-0.009000000000000001,-0.009000000000000001
1670267534.11996,-9.358,-2.235,3.47,0.7785000000000001,0.5683,0.0201,-0.083,-0.006,-0.014
1670267534.15996,-9.304,-2.321,3.5700000000000003,0.7795000000000001,0.5665,0.0108,-0.085,-0.007,-0.002
1670267534.19996,-9.415000000000001,-2.208,3.507,0.7741,0.5650000000000001,0.025500000000000002,-0.10400000000000001,-0.013000000000000001,0.005
1670267534.23996,-9.289,-2.2800000000000002,3.4170000000000003,0.7805000000000001,0.5674,0.0178,-0.147,-0.052000000000000005,-0.029
1670267534.27996,-9.445,-2.1510000000000002,3.535,0.7766000000000001,0.5677,0.022000000000000002,-0.105,0.024,-0.025
1670267534.31996,-9.278,-2.329,3.406,0.7823,0.5676,0.016300000000000002,-0.108,0.001,-0.005
1670267534.35996,-9.319,-2.218,3.48,0.7693,0.5671,0.0193,-0.097,-0.006,0.0
1670267534.39996,-9.341000000000001,-2.261,3.491,0.782,0.5689000000000001,0.0173,-0.085,-0.003,-0.02
1670267534.43996,-9.366,-2.241,3.523,0.7795000000000001,0.5659000000000001,0.0218,-0.075,-0.008,-0.014
1670267534.479959,-9.352,-2.2680000000000002,3.516,0.7838,0.5703,0.015300000000000001,-0.063,-0.003,-0.017
1670267534.519959,-9.333,-2.287,3.5020000000000002,0.7825000000000001,0.5674,0.0167,-0.065,0.001,-0.018000000000000002
1670267534.559959,-9.336,-2.2880000000000003,3.5100000000000002,0.7785000000000001,0.5692,0.0148,-0.08,0.0,-0.014
1670267534.599959,-9.354000000000001,-2.275,3.519,0.7782,0.5670000000000001,0.015300000000000001,-0.08600000000000001,-0.001,0.0
1670267534.639959,-9.314,-2.23,3.446,0.7829,0.5674,0.016800000000000002,-0.08,0.001,-0.016
1670267534.679959,-9.336,-2.251,3.482,0.781,0.5679000000000001,0.0182,-0.068,0.007,-0.023
1670267534.719959,-9.324,-2.312,3.549,0.7856000000000001,0.5670000000000001,0.0167,-0.081,0.003,-0.015
1670267534.759959,-9.301,-2.294,3.528,0.7816000000000001,0.5695,0.0178,-0.08700000000000001,0.006,-0.008
1670267534.799959,-9.33,-2.253,3.507,0.7794000000000001,0.5682,0.017,-0.081,0.0,-0.006
1670267534.839959,-9.314,-2.223,3.5180000000000002,0.7826000000000001,0.5670000000000001,0.0158,-0.079,0.007,-0.012
1670267534.879959,-9.346,-2.242,3.5,0.782,0.5667,0.020200000000000003,-0.067,0.01,-0.016
1670267534.919959,-9.266,-2.35,3.477,0.7799,0.5661,0.0241,-0.085,-0.001,-0.024
1670267534.959959,-9.334,-2.228,3.504,0.7799,0.5659000000000001,0.019100000000000002,-0.074,0.002,0.005
1670267534.999959,-9.319,-2.241,3.504,0.7811,0.5675,0.0173,-0.076,0.012,-0.008
1670267535.039959,-9.292,-2.182,3.49,0.7812,0.5654,0.017,-0.063,0.021,-0.026000000000000002
1670267535.079959,-9.339,-2.2920000000000003,3.473,0.7737,0.5667,0.0181,-0.082,0.014,-0.021
1670267535.119959,-9.3,-2.329,3.471,0.7806000000000001,0.5680000000000001,0.018600000000000002,-0.10300000000000001,-0.006,-0.014
1670267535.159959,-9.327,-2.2600000000000002,3.581,0.7785000000000001,0.5701,0.013300000000000001,-0.1,-0.01,-0.003
1670267535.199959,-9.370000000000001,-2.287,3.587,0.7802,0.5646,0.0177,-0.073,0.007,-0.014
1670267535.239959,-9.343,-2.265,3.5660000000000003,0.7806000000000001,0.5682,0.0162,-0.066,0.014,-0.012
1670267535.279959,-9.308,-2.294,3.489,0.7827000000000001,0.5667,0.0158,-0.076,0.026000000000000002,-0.008
1670267535.319959,-9.303,-2.283,3.492,0.7825000000000001,0.5683,0.0159,-0.08700000000000001,0.019,-0.005
1670267535.359959,-9.371,-2.2760000000000002,3.536,0.7788,0.5663,0.0162,-0.08700000000000001,0.013000000000000001,0.003
1670267535.3999588,-9.323,-2.238,3.4010000000000002,0.7829,0.5678000000000001,0.014400000000000001,-0.076,0.02,-0.005
1670267535.439959,-9.349,-2.229,3.48,0.784,0.5675,0.015600000000000001,-0.078,0.019,-0.016
1670267535.479959,-9.326,-2.244,3.438,0.7809,0.5694,0.0146,-0.085,0.012,-0.011
1670267535.519958,-9.323,-2.278,3.495,0.7812,0.5691,0.017,-0.09,0.007,-0.007
1670267535.559958,-9.347,-2.2560000000000002,3.423,0.7831,0.5672,0.0151,-0.095,-0.008,-0.014
1670267535.599958,-9.345,-2.228,3.541,0.7831,0.5668000000000001,0.0146,-0.092,-0.01,-0.015
1670267535.639958,-9.346,-2.2680000000000002,3.431,0.781,0.5687,0.013600000000000001,-0.084,-0.014,-0.024
1670267535.679958,-9.397,-2.281,3.561,0.7829,0.5691,0.0152,-0.09,-0.005,-0.019
1670267535.719958,-9.311,-2.351,3.547,0.7835000000000001,0.5693,0.0148,-0.093,-0.012,-0.021
1670267535.759958,-9.43,-2.212,3.64,0.7805000000000001,0.5663,0.0171,-0.076,0.005,0.003
1670267535.799958,-9.337,-2.309,3.395,0.782,0.5666,0.0137,-0.069,0.021,-0.005
1670267535.839958,-9.264,-2.201,3.3890000000000002,0.7843,0.5684,0.0177,-0.066,0.031,-0.025
1670267535.879958,-9.339,-2.345,3.475,0.7796000000000001,0.5684,0.0151,-0.078,0.014,-0.015
1670267535.919958,-9.371,-2.314,3.5140000000000002,0.7827000000000001,0.5675,0.015300000000000001,-0.098,-0.001,0.0
1670267535.959958,-9.294,-2.273,3.452,0.7834,0.5680000000000001,0.0137,-0.078,0.0,-0.011
1670267535.999958,-9.322000000000001,-2.22,3.5140000000000002,0.7801,0.5669000000000001,0.0173,-0.064,-0.002,-0.016
1670267536.039958,-9.363,-2.287,3.487,0.7815000000000001,0.5660000000000001,0.014400000000000001,-0.063,0.01,-0.016
1670267536.079958,-9.355,-2.281,3.527,0.7841,0.5657,0.0158,-0.069,0.016,-0.006
1670267536.119958,-9.332,-2.229,3.462,0.782,0.5664,0.0126,-0.066,0.009000000000000001,-0.008
1670267536.159958,-9.338000000000001,-2.242,3.463,0.7807000000000001,0.5675,0.013900000000000001,-0.079,0.001,-0.005
1670267536.1999578,-9.335,-2.255,3.479,0.782,0.5656,0.0146,-0.07200000000000001,-0.003,-0.019
1670267536.239958,-9.334,-2.27,3.476,0.782,0.5681,0.0151,-0.081,-0.001,-0.019
1670267536.279958,-9.36,-2.29,3.559,0.7798,0.5647,0.0145,-0.084,0.0,-0.023
1670267536.319958,-9.34,-2.274,3.511,0.7832,0.5689000000000001,0.0175,-0.076,0.003,-0.011
1670267536.359958,-9.285,-2.432,3.428,0.7825000000000001,0.5688,0.013300000000000001,-0.14200000000000002,0.043000000000000003,0.004
1670267536.399958,-9.388,-2.257,3.488,0.7813,0.5664,0.014700000000000001,-0.20500000000000002,0.057,0.018000000000000002
1670267536.4399579,-9.33,-2.194,3.434,0.7835000000000001,0.5665,0.013800000000000002,-0.138,0.0,0.012
1670267536.479958,-9.25,-2.307,3.341,0.7823,0.5689000000000001,0.0146,-0.107,-0.001,0.002
1670267536.519958,-9.4,-2.172,3.426,0.7828,0.5670000000000001,0.0097,-0.079,0.0,0.014
1670267536.559958,-9.385,-2.273,3.4130000000000003,0.7845000000000001,0.5673,0.0128,-0.055,0.019,-0.006
1670267536.599958,-9.338000000000001,-2.233,3.396,0.7837000000000001,0.5656,0.0108,-0.048,0.024,-0.019
1670267536.639957,-9.382,-2.314,3.466,0.7845000000000001,0.5655,0.011600000000000001,-0.059000000000000004,0.008,-0.022
1670267536.679957,-9.401,-2.302,3.467,0.7843,0.5670000000000001,0.011600000000000001,-0.078,-0.002,-0.012
1670267536.719957,-9.328,-2.237,3.364,0.7798,0.5674,0.0123,-0.085,-0.008,-0.01
1670267536.759957,-9.306000000000001,-2.2,3.411,0.7815000000000001,0.5657,0.0131,-0.063,-0.012,-0.024
1670267536.799957,-9.267,-2.251,3.364,0.781,0.5680000000000001,0.0158,-0.06,0.0,-0.016
1670267536.839957,-9.379,-2.283,3.427,0.7835000000000001,0.5670000000000001,0.0128,-0.066,0.006,-0.014
1670267536.879957,-9.333,-2.298,3.483,0.7831,0.5674,0.0115,-0.08700000000000001,0.016,-0.005
1670267536.919957,-9.328,-2.266,3.4370000000000003,0.7854,0.5655,0.0112,-0.074,0.024,-0.008
1670267536.959957,-9.346,-2.133,3.439,0.7833,0.5672,0.014400000000000001,-0.04,0.0,-0.014
1670267536.9999568,-9.328,-2.249,3.39,0.7829,0.5669000000000001,0.0145,0.039,-0.045,-0.034
1670267537.039957,-9.375,-2.308,3.404,0.7819,0.5677,0.014400000000000001,-0.026000000000000002,-0.002,-0.025
1670267537.079957,-9.313,-2.259,3.459,0.7802,0.5683,0.018600000000000002,-0.061,0.008,-0.022
1670267537.119957,-9.4,-2.307,3.5340000000000003,0.7782,0.5634,0.0187,-0.07,-0.002,-0.02
1670267537.159957,-9.358,-2.2520000000000002,3.498,0.7832,0.5666,0.0162,-0.084,-0.01,-0.013000000000000001
1670267537.199957,-9.351,-2.2520000000000002,3.493,0.7838,0.5670000000000001,0.014700000000000001,-0.083,-0.01,-0.024
1670267537.2399569,-9.3,-2.337,3.476,0.7823,0.5671,0.0137,-0.07,0.002,-0.031
1670267537.279957,-9.322000000000001,-2.294,3.565,0.7821,0.5694,0.0159,-0.082,-0.017,-0.031
1670267537.319957,-9.396,-2.2640000000000002,3.6350000000000002,0.7817000000000001,0.5688,0.017400000000000002,-0.065,-0.005,0.0
1670267537.359957,-9.311,-2.229,3.489,0.7808,0.5680000000000001,0.017,-0.06,0.004,-0.006
1670267537.399957,-9.288,-2.2840000000000003,3.424,0.7812,0.5684,0.016900000000000002,-0.06,0.023,-0.034
1670267537.439957,-9.329,-2.326,3.519,0.7813,0.5667,0.027200000000000002,-0.069,0.014,-0.032
1670267537.4799569,-9.315,-2.277,3.504,0.7813,0.5655,0.0054,-0.107,0.001,0.0
1670267537.519957,-9.315,-2.279,3.475,0.7788,0.5655,0.0274,-0.10200000000000001,-0.004,-0.008
1670267537.559957,-9.349,-2.279,3.543,0.7823,0.5662,0.0274,-0.069,0.003,-0.014
1670267537.599957,-9.317,-2.229,3.543,0.7781,0.5683,0.010400000000000001,-0.057,0.007,-0.019
1670267537.639957,-9.327,-2.2960000000000003,3.544,0.7752,0.5678000000000001,0.0223,-0.069,0.009000000000000001,-0.01
1670267537.679956,-9.348,-2.2880000000000003,3.4370000000000003,0.7809,0.5670000000000001,0.0128,-0.079,0.005,-0.009000000000000001
1670267537.719956,-9.33,-2.244,3.4410000000000003,0.7669,0.5633,0.045700000000000005,-0.085,0.0,-0.01
1670267537.759956,-9.358,-2.263,3.559,0.7799,0.5654,0.006500000000000001,-0.078,0.001,-0.013000000000000001
1670267537.7999558,-9.334,-2.2600000000000002,3.486,0.7771,0.5663,0.018600000000000002,-0.076,0.005,-0.018000000000000002
1670267537.839956,-9.31,-2.2600000000000002,3.422,0.7813,0.5672,0.0172,-0.082,0.004,-0.019
1670267537.879956,-9.306000000000001,-2.29,3.5020000000000002,0.782,0.5652,0.0184,-0.082,0.001,-0.015
1670267537.919956,-9.309000000000001,-2.285,3.472,0.7825000000000001,0.5669000000000001,0.013300000000000001,-0.08700000000000001,-0.001,-0.013000000000000001
1670267537.959956,-9.342,-2.29,3.5740000000000003,0.7818,0.5711,0.0158,-0.081,0.006,-0.02
1670267537.999956,-9.318,-2.285,3.533,0.7831,0.5664,0.0167,-0.068,0.004,-0.025
1670267538.0399559,-9.376,-2.2760000000000002,3.499,0.78,0.5659000000000001,0.0149,-0.078,0.01,-0.02
1670267538.079956,-9.282,-2.351,3.499,0.7802,0.5678000000000001,0.0149,-0.091,-0.005,-0.01
1670267538.119956,-9.378,-2.224,3.628,0.7835000000000001,0.5672,0.017,-0.069,0.006,0.007
1670267538.159956,-9.318,-2.294,3.434,0.7828,0.5689000000000001,0.0161,-0.065,0.026000000000000002,-0.012
1670267538.199956,-9.314,-2.214,3.471,0.7813,0.5685,0.016300000000000002,-0.067,0.028,-0.024
1670267538.239956,-9.242,-2.338,3.467,0.7795000000000001,0.5673,0.015000000000000001,-0.107,0.0,-0.008
1670267538.2799559,-9.348,-2.324,3.52,0.7798,0.5688,0.0142,-0.113,0.0,-0.002
1670267538.319956,-9.316,-2.249,3.5460000000000003,0.7831,0.5684,0.0159,-0.085,-0.002,-0.017
1670267538.359956,-9.306000000000001,-2.262,3.556,0.7698,0.5651,0.0262,-0.079,-0.003,-0.017
1670267538.399956,-9.351,-2.289,3.537,0.7807000000000001,0.5689000000000001,0.016300000000000002,-0.068,0.009000000000000001,-0.005
1670267538.439956,-9.34,-2.3040000000000003,3.5,0.7807000000000001,0.5674,0.0152,-0.076,0.024,-0.006
1670267538.479956,-9.307,-2.281,3.478,0.7796000000000001,0.5687,0.0146,-0.078,0.018000000000000002,0.0
1670267538.5199559,-9.318,-2.253,3.427,0.7784000000000001,0.5674,0.0166,-0.079,0.014,-0.01
1670267538.559956,-9.323,-2.223,3.41,0.7795000000000001,0.5649000000000001,0.0177,-0.074,0.015,-0.009000000000000001
1670267538.599956,-9.361,-2.2840000000000003,3.496,0.7816000000000001,0.5667,0.017400000000000002,-0.078,0.003,-0.023
1670267538.639956,-9.335,-2.2800000000000002,3.452,0.7785000000000001,0.5675,0.0151,-0.085,0.003,-0.02
1670267538.679956,-9.298,-2.266,3.4050000000000002,0.7804,0.5666,0.0177,-0.094,-0.004,-0.009000000000000001
1670267538.719955,-9.354000000000001,-2.275,3.484,0.7803,0.5686,0.0149,-0.08700000000000001,0.001,-0.016
1670267538.759955,-9.395,-2.286,3.584,0.7791,0.5688,0.0145,-0.073,0.001,-0.019
1670267538.799955,-9.333,-2.302,3.508,0.7831,0.5687,0.0161,-0.069,0.004,-0.016
1670267538.8399549,-9.351,-2.311,3.513,0.7804,0.5660000000000001,0.0155,-0.076,0.0,-0.023
1670267538.879955,-9.287,-2.324,3.471,0.7805000000000001,0.5651,0.014,-0.08700000000000001,-0.005,-0.01
1670267538.919955,-9.4,-2.204,3.5500000000000003,0.7832,0.5671,0.0142,-0.07100000000000001,0.008,0.006
1670267538.959955,-9.338000000000001,-2.312,3.44,0.7827000000000001,0.5693,0.014700000000000001,-0.066,0.016,-0.018000000000000002
1670267538.999955,-9.325000000000001,-2.277,3.489,0.7774000000000001,0.5692,0.015600000000000001,-0.066,0.017,-0.033
1670267539.039955,-9.313,-2.329,3.44,0.7809,0.5676,0.0137,-0.095,0.0,-0.014
