timestamp,acc_x,acc_y,acc_z,magn_x,magn_y,magn_z,gyro_x,gyro_y,gyro_z
1670266974.0,-10.244,-0.234,2.4130000000000003,0.1545,0.6972,0.0981,0.008,-0.011,-0.011
1670266974.04,-10.289,-0.214,2.395,0.1583,0.6966,0.0993,-0.001,-0.007,-0.002
1670266974.08,-10.247,-0.20400000000000001,2.4290000000000003,0.1532,0.6982,0.1005,0.013000000000000001,-0.014,0.001
1670266974.12,-10.244,-0.183,2.445,0.15460000000000002,0.6967,0.0994,0.031,-0.024,-0.002
1670266974.16,-10.282,-0.162,2.456,0.1562,0.6956,0.10250000000000001,0.023,-0.038,-0.005
1670266974.2,-10.262,-0.177,2.463,0.1553,0.6972,0.1005,0.017,-0.034,0.007
1670266974.24,-10.287,-0.152,2.463,0.1575,0.6982,0.10160000000000001,0.016,-0.03,0.0
1670266974.28,-10.261000000000001,-0.095,2.446,0.1567,0.6967,0.10350000000000001,0.026000000000000002,-0.011,0.006
1670266974.32,-10.278,-0.147,2.426,0.15610000000000002,0.6969000000000001,0.10300000000000001,0.017,-0.006,-0.002
1670266974.36,-10.249,-0.145,2.436,0.15560000000000002,0.6957,0.10070000000000001,0.007,-0.011,0.0
1670266974.4,-10.268,-0.153,2.454,0.15460000000000002,0.6978000000000001,0.0999,0.016,-0.014,-0.005
1670266974.44,-10.205,-0.178,2.486,0.156,0.6953,0.09960000000000001,0.015,-0.017,-0.009000000000000001
1670266974.48,-10.268,-0.132,2.511,0.15710000000000002,0.6961,0.10250000000000001,0.008,-0.022,-0.001
1670266974.52,-10.232000000000001,-0.167,2.456,0.1542,0.6972,0.1051,0.011,-0.017,-0.014
1670266974.559999,-10.27,-0.169,2.42,0.153,0.6967,0.09960000000000001,0.023,-0.011,-0.02
1670266974.599999,-10.283,-0.201,2.4170000000000003,0.1554,0.6984,0.1004,0.02,-0.01,-0.01
1670266974.639999,-10.267,-0.199,2.419,0.1534,0.7011000000000001,0.10260000000000001,0.006,0.003,-0.008
1670266974.6799989,-10.241,-0.211,2.447,0.15360000000000001,0.6946,0.10070000000000001,0.006,-0.002,-0.005
1670266974.719999,-10.289,-0.201,2.415,0.15760000000000002,0.6972,0.101,-0.01,-0.005,0.001
1670266974.759999,-10.273,-0.187,2.465,0.1585,0.6972,0.101,-0.014,-0.004,-0.005
1670266974.799999,-10.235,-0.183,2.473,0.15480000000000002,0.6990000000000001,0.0974,-0.005,-0.012,-0.009000000000000001
1670266974.839999,-10.259,-0.195,2.411,0.1545,0.6983,0.1015,0.002,-0.029,-0.008
1670266974.879999,-10.319,-0.179,2.383,0.1557,0.6977,0.1013,0.011,-0.014,-0.004
1670266974.919999,-10.293000000000001,-0.20500000000000002,2.442,0.1474,0.6988000000000001,0.1022,0.014,-0.003,-0.005
1670266974.959999,-10.290000000000001,-0.258,2.433,0.15710000000000002,0.6967,0.0989,0.008,-0.008,-0.002
1670266974.999999,-10.321,-0.186,2.44,0.154,0.6989000000000001,0.1013,-0.001,0.0,0.002
1670266975.039999,-10.286,-0.201,2.496,0.1552,0.6959000000000001,0.0993,0.009000000000000001,-0.004,0.01
1670266975.079999,-10.263,-0.183,2.4290000000000003,0.15610000000000002,0.6969000000000001,0.10160000000000001,0.006,0.001,0.0
1670266975.119999,-10.268,-0.147,2.391,0.15560000000000002,0.6958000000000001,0.10010000000000001,0.015,-0.005,0.0
1670266975.159999,-10.241,-0.22,2.347,0.1553,0.6999000000000001,0.0984,0.022,-0.018000000000000002,-0.012
1670266975.199999,-10.24,-0.20600000000000002,2.435,0.1553,0.6988000000000001,0.09970000000000001,0.012,-0.019,-0.011
1670266975.239999,-10.267,-0.233,2.426,0.15610000000000002,0.6989000000000001,0.0994,0.014,-0.018000000000000002,-0.018000000000000002
1670266975.279999,-10.276,-0.219,2.42,0.1552,0.6990000000000001,0.1003,0.011,-0.008,0.001
1670266975.319999,-10.282,-0.20600000000000002,2.458,0.1424,0.6926,0.1053,0.014,-0.002,0.006
1670266975.359999,-10.267,-0.186,2.485,0.1559,0.6974,0.09770000000000001,0.02,-0.002,-0.008
1670266975.399999,-10.263,-0.168,2.454,0.1525,0.6948000000000001,0.0999,0.009000000000000001,-0.006,-0.002
1670266975.439999,-10.269,-0.214,2.354,0.1564,0.6975,0.0978,0.009000000000000001,-0.018000000000000002,0.002
1670266975.479999,-10.284,-0.195,2.412,0.15410000000000001,0.6978000000000001,0.101,0.013000000000000001,-0.012,0.003
1670266975.519999,-10.27,-0.194,2.4050000000000002,0.1562,0.6982,0.09630000000000001,0.016,-0.005,-0.011
1670266975.559999,-10.281,-0.20700000000000002,2.37,0.1549,0.6960000000000001,0.1077,0.02,-0.003,-0.004
1670266975.599998,-10.254,-0.209,2.391,0.1515,0.6971,0.1003,0.008,-0.013000000000000001,-0.003
1670266975.639998,-10.296,-0.178,2.4170000000000003,0.1539,0.6985,0.111,0.009000000000000001,-0.015,-0.006
1670266975.679998,-10.253,-0.177,2.39,0.15280000000000002,0.6982,0.11170000000000001,0.005,-0.026000000000000002,-0.008
1670266975.719998,-10.290000000000001,-0.20700000000000002,2.402,0.1558,0.6986,0.08510000000000001,0.016,-0.024,-0.015
1670266975.759998,-10.302,-0.195,2.387,0.15180000000000002,0.6983,0.1052,0.024,-0.024,-0.014
1670266975.799998,-10.177,-0.249,2.454,0.1562,0.6988000000000001,0.0975,0.024,-0.032,-0.017
1670266975.839998,-10.308,-0.217,2.483,0.15510000000000002,0.6989000000000001,0.0998,0.008,-0.035,-0.009000000000000001
1670266975.879998,-10.343,-0.229,2.45,0.15480000000000002,0.6978000000000001,0.0975,0.012,-0.011,0.001
1670266975.919998,-10.243,-0.218,2.436,0.1517,0.6960000000000001,0.10020000000000001,0.013000000000000001,0.003,0.012
1670266975.959998,-10.213000000000001,-0.18,2.451,0.15480000000000002,0.6986,0.1013,0.012,-0.004,0.002
1670266975.999998,-10.235,-0.198,2.447,0.15510000000000002,0.6994,0.0966,0.023,-0.019,-0.012
1670266976.039998,-10.289,-0.23700000000000002,2.428,0.1557,0.6975,0.0974,0.017,-0.016,-0.015
1670266976.079998,-10.28,-0.272,2.426,0.1557,0.7002,0.09860000000000001,0.023,-0.021,-0.014
1670266976.119998,-10.249,-0.197,2.419,0.15430000000000002,0.6991,0.0995,0.0,-0.016,0.0
1670266976.159998,-10.246,-0.257,2.473,0.1557,0.6992,0.1012,0.011,-0.013000000000000001,0.006
1670266976.199998,-10.311,-0.179,2.419,0.1552,0.7013,0.10110000000000001,0.019,-0.001,-0.006
1670266976.239998,-10.243,-0.222,2.424,0.1568,0.6985,0.0993,0.026000000000000002,-0.001,-0.006
1670266976.279998,-10.267,-0.20600000000000002,2.464,0.1572,0.6991,0.0974,0.017,-0.014,-0.003
1670266976.319998,-10.274000000000001,-0.203,2.382,0.1567,0.6965,0.10250000000000001,0.011,-0.022,-0.008
1670266976.359998,-10.218,-0.225,2.387,0.1565,0.6965,0.0983,0.023,-0.02,-0.013000000000000001
1670266976.399998,-10.305,-0.231,2.4170000000000003,0.15610000000000002,0.6998000000000001,0.101,0.01,-0.018000000000000002,-0.01
1670266976.439998,-10.277000000000001,-0.226,2.415,0.1579,0.6993,0.09860000000000001,0.007,-0.018000000000000002,0.0
1670266976.479998,-10.28,-0.231,2.353,0.15480000000000002,0.7007,0.0984,0.012,-0.013000000000000001,-0.002
1670266976.519998,-10.287,-0.23800000000000002,2.39,0.1552,0.6977,0.0981,0.021,-0.005,-0.007
1670266976.559998,-10.267,-0.23900000000000002,2.434,0.15280000000000002,0.7000000000000001,0.09860000000000001,0.02,-0.01,-0.008
1670266976.599998,-10.205,-0.274,2.4170000000000003,0.1512,0.6965,0.09870000000000001,0.021,-0.026000000000000002,-0.012
1670266976.639997,-10.297,-0.234,2.46,0.1558,0.6984,0.0994,0.017,-0.014,0.004
1670266976.679997,-10.328,-0.21,2.438,0.1544,0.6986,0.0975,0.019,-0.003,0.008
1670266976.719997,-10.284,-0.20700000000000002,2.387,0.155,0.6978000000000001,0.10020000000000001,0.02,0.003,0.006
1670266976.759997,-10.225,-0.192,2.371,0.1577,0.6999000000000001,0.0993,0.025,-0.009000000000000001,0.0
1670266976.799997,-10.23,-0.211,2.415,0.1562,0.6991,0.09970000000000001,0.019,-0.019,-0.004
1670266976.839997,-10.322000000000001,-0.218,2.367,0.155,0.6992,0.09920000000000001,0.016,-0.019,-0.01
1670266976.879997,-10.292,-0.25,2.453,0.1578,0.6990000000000001,0.1004,0.006,-0.02,-0.014
1670266976.919997,-10.262,-0.202,2.457,0.15430000000000002,0.6976,0.0999,0.016,-0.028,-0.008
1670266976.959997,-10.243,-0.253,2.481,0.156,0.6999000000000001,0.099,0.021,-0.028,-0.011
1670266976.999997,-10.266,-0.21,2.448,0.1532,0.6988000000000001,0.0994,0.03,-0.014,-0.01
1670266977.039997,-10.227,-0.244,2.4290000000000003,0.1563,0.6974,0.09870000000000001,0.019,-0.016,-0.006
1670266977.079997,-10.256,-0.232,2.4290000000000003,0.15180000000000002,0.6947,0.1085,0.01,-0.016,0.004
1670266977.119997,-10.264,-0.20400000000000001,2.482,0.15280000000000002,0.6982,0.0998,0.008,-0.008,0.0
1670266977.159997,-10.271,-0.23500000000000001,2.431,0.15560000000000002,0.6972,0.10110000000000001,0.02,-0.01,-0.009000000000000001
1670266977.199997,-10.235,-0.23900000000000002,2.447,0.1539,0.6977,0.09910000000000001,0.013000000000000001,-0.003,-0.007
1670266977.239997,-10.246,-0.233,2.432,0.1549,0.7009000000000001,0.0989,0.012,-0.003,0.0
1670266977.279997,-10.259,-0.21,2.4050000000000002,0.15460000000000002,0.6998000000000001,0.09870000000000001,0.011,-0.011,-0.003
1670266977.319997,-10.28,-0.231,2.387,0.1554,0.6989000000000001,0.098,0.013000000000000001,-0.018000000000000002,-0.01
1670266977.359997,-10.265,-0.231,2.451,0.1557,0.7023,0.0994,0.015,-0.006,-0.005
1670266977.399997,-10.225,-0.259,2.435,0.1554,0.6972,0.0974,0.012,-0.025,-0.006
1670266977.439997,-10.299,-0.23900000000000002,2.444,0.1564,0.6996,0.09730000000000001,0.014,-0.015,0.0
1670266977.479997,-10.304,-0.211,2.478,0.15430000000000002,0.6969000000000001,0.0751,0.019,-0.006,0.001
1670266977.519997,-10.293000000000001,-0.23500000000000001,2.356,0.152,0.6988000000000001,0.1073,0.024,-0.002,0.001
1670266977.5599968,-10.268,-0.222,2.386,0.1509,0.7002,0.0876,0.019,-0.003,0.0
1670266977.599997,-10.274000000000001,-0.225,2.403,0.15510000000000002,0.6994,0.11660000000000001,0.015,-0.016,-0.007
1670266977.639997,-10.262,-0.256,2.433,0.156,0.6978000000000001,0.1008,0.026000000000000002,-0.024,-0.01
1670266977.679996,-10.25,-0.247,2.462,0.1545,0.7001000000000001,0.09910000000000001,0.021,-0.015,-0.007
1670266977.719996,-10.247,-0.2,2.5380000000000003,0.1545,0.7002,0.101,0.021,-0.022,0.001
1670266977.759996,-10.28,-0.225,2.444,0.1519,0.6989000000000001,0.10300000000000001,0.016,-0.013000000000000001,-0.002
1670266977.799996,-10.259,-0.227,2.404,0.1525,0.6993,0.1033,0.029,-0.006,-0.011
1670266977.839996,-10.208,-0.263,2.462,0.1496,0.6986,0.10260000000000001,0.021,-0.003,-0.004
1670266977.879996,-10.25,-0.256,2.452,0.1557,0.6985,0.1005,0.005,-0.007,0.014
1670266977.919996,-10.302,-0.089,2.4210000000000003,0.1545,0.7011000000000001,0.0994,0.037,-0.012,-0.017
1670266977.959996,-10.268,-0.298,2.3810000000000002,0.1539,0.6994,0.10020000000000001,0.06,-0.009000000000000001,-0.031
1670266977.999996,-10.205,-0.18,2.494,0.1531,0.6993,0.1003,0.047,-0.008,-0.011
1670266978.039996,-10.24,-0.061,2.347,0.15480000000000002,0.7002,0.10020000000000001,0.116,-0.02,-0.068
1670266978.079996,-10.301,-0.154,2.423,0.15460000000000002,0.7007,0.0994,0.196,-0.007,-0.131
1670266978.119996,-10.247,-0.37,2.419,0.15460000000000002,0.6995,0.1042,0.245,0.0,-0.162
1670266978.159996,-10.281,-0.666,2.345,0.15230000000000002,0.7002,0.1015,0.094,-0.024,-0.029
1670266978.199996,-10.265,-0.387,2.362,0.15230000000000002,0.6998000000000001,0.1029,0.025,-0.026000000000000002,0.015
1670266978.239996,-10.232000000000001,-0.442,2.411,0.1501,0.7003,0.10210000000000001,-0.025,-0.028,0.01
1670266978.279996,-10.209,-0.223,2.416,0.151,0.7016,0.10210000000000001,-0.025,-0.03,0.014
1670266978.319996,-10.199,-0.35100000000000003,2.43,0.1504,0.6994,0.1024,-0.02,-0.043000000000000003,-0.006
1670266978.359996,-10.314,-0.256,2.4250000000000003,0.1534,0.7007,0.1048,-0.006,-0.024,0.006
1670266978.399996,-10.173,-0.28600000000000003,2.43,0.1516,0.7001000000000001,0.10550000000000001,-0.002,-0.02,0.021
1670266978.439996,-10.211,-0.292,2.494,0.1534,0.7002,0.1027,-0.008,-0.03,0.005
1670266978.479996,-10.287,-0.24,2.5220000000000002,0.15230000000000002,0.6986,0.1032,-0.006,-0.034,-0.002
1670266978.519996,-10.282,-0.29,2.472,0.1527,0.7000000000000001,0.10070000000000001,-0.005,-0.025,0.0
1670266978.559996,-10.241,-0.268,2.565,0.15380000000000002,0.7002,0.1032,-0.013000000000000001,-0.032,0.018000000000000002
1670266978.5999959,-10.258000000000001,-0.36,2.487,0.1539,0.6988000000000001,0.1041,-0.017,-0.028,0.011
1670266978.639996,-10.273,-0.23800000000000002,2.503,0.1501,0.7010000000000001,0.1015,-0.007,-0.032,-0.013000000000000001
1670266978.679996,-10.229000000000001,-0.296,2.523,0.1532,0.6988000000000001,0.1032,0.005,-0.022,-0.022
1670266978.719995,-10.237,-0.28600000000000003,2.5020000000000002,0.1525,0.7002,0.1029,0.019,-0.018000000000000002,-0.015
1670266978.759995,-10.253,-0.303,2.504,0.1532,0.6996,0.1018,0.018000000000000002,-0.014,-0.001
1670266978.799995,-10.262,-0.304,2.501,0.1521,0.7018,0.10400000000000001,0.024,-0.013000000000000001,-0.001
1670266978.839995,-10.226,-0.308,2.495,0.154,0.6985,0.1027,0.014,-0.011,-0.002
1670266978.879995,-10.241,-0.302,2.5460000000000003,0.149,0.6993,0.1027,0.012,-0.016,-0.003
1670266978.919995,-10.217,-0.299,2.515,0.15180000000000002,0.6999000000000001,0.1032,0.012,-0.022,-0.006
1670266978.959995,-10.227,-0.28800000000000003,2.5060000000000002,0.1525,0.7013,0.1019,0.019,-0.012,0.0
1670266978.999995,-10.247,-0.27,2.571,0.1532,0.7004,0.1041,0.016,-0.004,-0.005
1670266979.039995,-10.254,-0.281,2.511,0.1522,0.7010000000000001,0.10010000000000001,0.017,-0.008,-0.003
1670266979.079995,-10.128,-0.333,2.567,0.15180000000000002,0.7012,0.1041,0.003,-0.006,0.003
1670266979.119995,-10.265,-0.308,2.5260000000000002,0.1501,0.6997,0.10250000000000001,0.012,-0.003,0.019
1670266979.159995,-10.281,-0.299,2.517,0.1542,0.6994,0.10300000000000001,0.007,0.012,0.012
1670266979.199995,-10.229000000000001,-0.278,2.487,0.1531,0.6975,0.1037,0.01,0.005,0.006
1670266979.239995,-10.198,-0.28300000000000003,2.436,0.15280000000000002,0.6986,0.1008,0.014,-0.015,-0.001
1670266979.279995,-10.204,-0.275,2.49,0.15480000000000002,0.6980000000000001,0.1043,0.01,-0.011,-0.01
1670266979.319995,-10.285,-0.261,2.436,0.14730000000000001,0.6952,0.13520000000000001,-0.003,-0.018000000000000002,-0.011
1670266979.359995,-10.311,-0.293,2.547,0.1496,0.6983,0.11710000000000001,-0.002,-0.017,0.002
1670266979.3999949,-10.206,-0.311,2.469,0.1531,0.6998000000000001,0.0825,0.015,-0.019,-0.006
1670266979.439995,-10.278,-0.275,2.472,0.1535,0.6991,0.0971,0.019,-0.022,-0.016
1670266979.479995,-10.246,-0.309,2.467,0.15430000000000002,0.7000000000000001,0.1073,0.021,-0.014,-0.008
1670266979.519995,-10.216000000000001,-0.281,2.467,0.1539,0.7013,0.09970000000000001,0.017,-0.02,0.002
1670266979.559995,-10.268,-0.292,2.411,0.1542,0.7011000000000001,0.10250000000000001,0.016,-0.022,0.0
1670266979.599995,-10.228,-0.307,2.49,0.1511,0.6979000000000001,0.1048,0.015,-0.01,-0.001
1670266979.6399949,-10.27,-0.292,2.486,0.1529,0.6996,0.10070000000000001,0.011,-0.011,-0.003
1670266979.679995,-10.229000000000001,-0.314,2.475,0.1535,0.6986,0.1038,0.005,-0.008,-0.003
1670266979.719995,-10.237,-0.298,2.47,0.1539,0.7000000000000001,0.10070000000000001,0.007,-0.009000000000000001,-0.004
1670266979.759995,-10.234,-0.263,2.487,0.1542,0.7004,0.1019,0.002,-0.021,-0.008
1670266979.799995,-10.189,-0.354,2.525,0.1553,0.7019000000000001,0.1012,0.014,-0.036000000000000004,-0.007
1670266979.839994,-10.307,-0.256,2.5420000000000003,0.1521,0.6992,0.1048,-0.002,-0.019,-0.001
1670266979.879994,-10.241,-0.316,2.5300000000000002,0.15280000000000002,0.7012,0.10310000000000001,0.017,0.005,0.005
1670266979.919994,-10.191,-0.298,2.494,0.155,0.6980000000000001,0.10260000000000001,0.011,0.003,0.006
1670266979.959994,-10.200000000000001,-0.271,2.479,0.1517,0.6988000000000001,0.1029,0.0,-0.007,0.004
1670266979.999994,-10.245000000000001,-0.278,2.508,0.1545,0.6997,0.10400000000000001,-0.002,-0.013000000000000001,0.006
1670266980.039994,-10.278,-0.269,2.5260000000000002,0.1527,0.7008,0.10300000000000001,0.01,-0.003,0.0
1670266980.079994,-10.211,-0.272,2.5540000000000003,0.1534,0.7001000000000001,0.1024,0.002,-0.009000000000000001,-0.005
1670266980.119994,-10.228,-0.259,2.524,0.1522,0.6991,0.1018,0.007,-0.011,0.0
1670266980.159994,-10.301,-0.32,2.476,0.15480000000000002,0.7043,0.1024,0.001,-0.002,0.0
1670266980.1999938,-10.241,-0.274,2.499,0.1534,0.7003,0.10300000000000001,0.016,0.008,-0.001
1670266980.239994,-10.229000000000001,-0.307,2.472,0.15430000000000002,0.6985,0.10110000000000001,0.005,-0.001,0.01
1670266980.279994,-10.243,-0.272,2.469,0.1537,0.6996,0.0999,0.01,0.0,0.015
1670266980.319994,-10.241,-0.223,2.4170000000000003,0.15460000000000002,0.6983,0.1013,0.031,-0.004,-0.006
1670266980.359994,-10.262,-0.313,2.46,0.1554,0.6985,0.10490000000000001,0.036000000000000004,-0.007,-0.013000000000000001
1670266980.399994,-10.255,-0.219,2.403,0.15560000000000002,0.7009000000000001,0.0994,0.043000000000000003,0.005,-0.019
1670266980.4399939,-10.277000000000001,-0.29,2.403,0.1557,0.7018,0.09970000000000001,0.033,-0.005,-0.014
1670266980.479994,-10.302,-0.395,2.388,0.15230000000000002,0.6986,0.0993,-0.015,-0.016,0.023
1670266980.519994,-10.195,-0.223,2.511,0.15280000000000002,0.6999000000000001,0.09970000000000001,-0.016,-0.029,0.006
1670266980.559994,-10.308,-0.23800000000000002,2.5,0.1553,0.6999000000000001,0.1018,0.003,-0.009000000000000001,0.009000000000000001
1670266980.599994,-10.299,-0.254,2.475,0.15560000000000002,0.7003,0.1029,0.022,-0.003,0.006
1670266980.639994,-10.234,-0.337,2.39,0.1527,0.7003,0.1017,0.011,0.0,0.035
1670266980.6799939,-10.104000000000001,-0.24,2.49,0.15460000000000002,0.7008,0.0988,-0.03,-0.045,0.045
1670266980.719994,-10.307,-0.45,2.447,0.1569,0.6991,0.1029,-0.14300000000000002,-0.065,0.084
1670266980.759994,-10.284,-0.341,2.462,0.1557,0.6946,0.10210000000000001,-0.11900000000000001,-0.059000000000000004,0.077
1670266980.799994,-10.293000000000001,-0.124,2.54,0.15330000000000002,0.6988000000000001,0.1013,-0.091,-0.038,-0.012
1670266980.839994,-10.254,-0.231,2.512,0.1454,0.6955,0.099,-0.128,-0.053,0.057
1670266980.879993,-10.217,-0.222,2.529,0.155,0.6966,0.0974,-0.121,-0.046,0.06
1670266980.919993,-10.274000000000001,-0.314,2.537,0.1542,0.7007,0.0984,-0.213,-0.051000000000000004,0.076
1670266980.959993,-10.199,-0.466,2.495,0.1554,0.7004,0.09770000000000001,-0.221,-0.069,0.053
1670266980.9999928,-10.295,-0.005,2.5260000000000002,0.16,0.6988000000000001,0.0954,-0.184,-0.055,-0.022
1670266981.039993,-10.238,-0.132,2.586,0.1572,0.7000000000000001,0.0988,-0.203,-0.04,0.027
1670266981.079993,-10.261000000000001,-0.18,2.555,0.1507,0.6975,0.10110000000000001,-0.145,-0.015,-0.02
1670266981.119993,-10.213000000000001,-0.002,2.588,0.15760000000000002,0.6996,0.093,-0.08600000000000001,-0.006,-0.048
1670266981.159993,-10.231,-0.261,2.585,0.15180000000000002,0.7002,0.09860000000000001,-0.075,0.005,-0.023
1670266981.199993,-10.191,-0.482,2.466,0.1553,0.7025,0.0902,-0.066,-0.021,-0.002
1670266981.2399929,-10.252,-0.314,2.6350000000000002,0.1558,0.7040000000000001,0.0994,-0.044,-0.045,0.006
1670266981.279993,-10.235,-0.41400000000000003,2.6510000000000002,0.1535,0.7016,0.1063,-0.048,-0.043000000000000003,-0.023
1670266981.319993,-10.277000000000001,-0.378,2.696,0.15610000000000002,0.7046,0.1189,-0.076,-0.043000000000000003,0.004
1670266981.359993,-10.25,-0.447,2.549,0.1467,0.6974,0.1019,-0.106,-0.042,0.034
1670266981.399993,-10.199,-0.417,2.632,0.15510000000000002,0.7032,0.09280000000000001,-0.122,-0.048,0.038
1670266981.439993,-10.179,-0.308,2.611,0.1564,0.7048,0.0942,-0.124,-0.062,0.053
1670266981.4799929,-10.216000000000001,-0.213,2.703,0.15460000000000002,0.7033,0.0926,-0.067,-0.049,-0.015
1670266981.519993,-10.188,-0.326,2.657,0.15460000000000002,0.7041000000000001,0.0932,-0.054,-0.057,-0.002
1670266981.559993,-10.119,-0.211,2.6790000000000003,0.1562,0.7064,0.0959,-0.02,-0.056,-0.014
1670266981.599993,-10.075000000000001,-0.322,2.6550000000000002,0.15460000000000002,0.7011000000000001,0.0951,0.038,-0.075,-0.054
1670266981.639993,-10.191,-0.341,2.684,0.1564,0.7057,0.09680000000000001,0.046,-0.105,-0.023
1670266981.679993,-10.223,-0.336,2.795,0.1517,0.7062,0.095,0.094,-0.068,-0.001
1670266981.7199929,-10.217,-0.257,2.839,0.1549,0.7048,0.0993,0.156,-0.018000000000000002,-0.056
1670266981.759993,-10.174,-0.272,2.816,0.15430000000000002,0.7055,0.0993,0.24,0.004,-0.108
1670266981.799993,-10.18,-0.186,2.874,0.1506,0.7058,0.099,0.34600000000000003,0.035,-0.17500000000000002
1670266981.839993,-10.152000000000001,-0.535,2.7760000000000002,0.15180000000000002,0.7056,0.1008,0.361,0.053,-0.217
1670266981.879993,-10.101,-0.793,2.678,0.1516,0.7066,0.1029,0.234,0.042,-0.13
1670266981.919992,-10.134,-0.671,2.725,0.1522,0.7080000000000001,0.1019,0.133,0.029,-0.033
1670266981.959992,-10.116,-0.657,2.688,0.1491,0.7093,0.10300000000000001,0.014,-0.007,0.023
1670266981.999992,-10.131,-0.45,2.694,0.1506,0.7048,0.1024,-0.006,-0.009000000000000001,0.041
1670266982.0399919,-10.158,-0.338,2.736,0.1515,0.7044,0.10200000000000001,0.013000000000000001,-0.01,0.008
1670266982.079992,-10.156,-0.43,2.714,0.151,0.7065,0.1017,0.036000000000000004,-0.005,0.023
1670266982.119992,-10.213000000000001,-0.369,2.697,0.1527,0.7066,0.1024,0.027,0.002,0.037
1670266982.159992,-10.15,-0.363,2.67,0.1453,0.7025,0.10070000000000001,0.034,0.011,0.023
1670266982.199992,-10.118,-0.334,2.695,0.1526,0.7054,0.10210000000000001,0.052000000000000005,0.022,-0.004
1670266982.239992,-10.163,-0.419,2.6790000000000003,0.15230000000000002,0.7044,0.10160000000000001,0.043000000000000003,0.026000000000000002,-0.007
1670266982.2799919,-10.175,-0.436,2.758,0.14850000000000002,0.7041000000000001,0.1017,0.012,0.016,0.011
1670266982.319992,-10.186,-0.388,2.666,0.1515,0.7063,0.101,0.012,0.006,-0.005
1670266982.359992,-10.197000000000001,-0.394,2.724,0.1525,0.7069000000000001,0.09870000000000001,-0.005,0.005,0.008
1670266982.399992,-10.202,-0.42,2.632,0.1505,0.7041000000000001,0.09860000000000001,-0.001,0.005,0.017
1670266982.439992,-10.153,-0.339,2.6630000000000003,0.1515,0.7049000000000001,0.0978,0.027,0.009000000000000001,0.0
1670266982.479992,-10.173,-0.402,2.59,0.1515,0.7037,0.0974,0.028,0.006,0.001
1670266982.5199919,-10.209,-0.323,2.588,0.1521,0.7041000000000001,0.0989,0.043000000000000003,0.015,-0.006
1670266982.559992,-10.255,-0.386,2.537,0.1516,0.7061000000000001,0.098,0.047,0.009000000000000001,0.002
1670266982.599992,-10.195,-0.353,2.544,0.1517,0.7035,0.0974,0.031,-0.001,-0.003
1670266982.639992,-10.229000000000001,-0.34400000000000003,2.548,0.15480000000000002,0.7053,0.10010000000000001,0.04,-0.016,-0.026000000000000002
1670266982.679992,-10.19,-0.40700000000000003,2.608,0.15280000000000002,0.7029000000000001,0.0981,0.032,-0.025,-0.011
1670266982.719992,-10.207,-0.402,2.612,0.15,0.7046,0.09870000000000001,0.018000000000000002,-0.022,-0.003
1670266982.759992,-10.22,-0.341,2.641,0.1542,0.7055,0.096,0.035,-0.016,-0.005
1670266982.799992,-10.138,-0.381,2.629,0.1527,0.7057,0.0964,0.037,-0.015,-0.005
1670266982.839992,-10.201,-0.362,2.624,0.14780000000000001,0.7029000000000001,0.1015,0.032,-0.008,-0.002
1670266982.879992,-10.207,-0.39,2.611,0.1537,0.7042,0.0974,0.034,-0.012,-0.001
1670266982.919992,-10.185,-0.372,2.547,0.1399,0.6991,0.10650000000000001,0.016,-0.023,-0.001
1670266982.959991,-10.121,-0.434,2.621,0.1526,0.7022,0.0975,0.02,-0.021,-0.004
1670266982.999991,-10.24,-0.331,2.649,0.15230000000000002,0.7059000000000001,0.0994,0.021,-0.004,0.009000000000000001
1670266983.039991,-10.25,-0.375,2.59,0.1512,0.7031000000000001,0.0869,0.024,-0.009000000000000001,0.009000000000000001
1670266983.0799909,-10.186,-0.323,2.531,0.15,0.7033,0.0897,0.039,-0.012,0.0
1670266983.119991,-10.147,-0.366,2.606,0.1489,0.6991,0.10010000000000001,0.038,-0.021,-0.009000000000000001
1670266983.159991,-10.255,-0.374,2.618,0.1545,0.7044,0.1058,0.032,-0.029,-0.014
1670266983.199991,-10.186,-0.41200000000000003,2.6550000000000002,0.1531,0.7027,0.1029,0.02,-0.027,-0.016
1670266983.239991,-10.164,-0.339,2.6710000000000003,0.1547,0.7044,0.0999,0.019,-0.033,-0.012
1670266983.279991,-10.211,-0.387,2.678,0.15280000000000002,0.7060000000000001,0.099,0.026000000000000002,-0.026000000000000002,-0.009000000000000001
1670266983.3199909,-10.184000000000001,-0.325,2.72,0.15430000000000002,0.7036,0.09910000000000001,0.027,-0.014,-0.01
1670266983.359991,-10.169,-0.441,2.615,0.1496,0.7044,0.1037,0.03,-0.006,-0.009000000000000001
1670266983.399991,-10.153,-0.365,2.67,0.1477,0.7042,0.09920000000000001,0.016,-0.009000000000000001,0.004
1670266983.439991,-10.129,-0.358,2.625,0.15430000000000002,0.7031000000000001,0.0995,0.021,-0.001,-0.001
1670266983.479991,-10.22,-0.277,2.628,0.1531,0.7051000000000001,0.0989,0.032,-0.015,-0.001
1670266983.519991,-10.222,-0.322,2.611,0.1522,0.7070000000000001,0.1029,0.061,-0.018000000000000002,-0.022
1670266983.559991,-10.153,-0.114,2.691,0.15480000000000002,0.7069000000000001,0.10250000000000001,0.114,-0.013000000000000001,-0.049
1670266983.599991,-10.174,-0.275,2.642,0.1537,0.7037,0.1009,0.154,0.0,-0.10200000000000001
1670266983.639991,-10.17,-0.47700000000000004,2.573,0.1537,0.7031000000000001,0.1037,0.183,0.0,-0.11800000000000001
1670266983.679991,-10.225,-0.541,2.636,0.1545,0.7082,0.1048,0.152,-0.011,-0.074
1670266983.719991,-10.267,-0.668,2.5180000000000002,0.1505,0.7049000000000001,0.10310000000000001,0.051000000000000004,-0.026000000000000002,-0.039
1670266983.759991,-10.168000000000001,-0.377,2.711,0.15180000000000002,0.7069000000000001,0.1039,0.002,-0.034,0.004
1670266983.799991,-10.086,-0.512,2.673,0.15280000000000002,0.7027,0.1034,0.006,-0.04,0.003
1670266983.839991,-10.207,-0.397,2.694,0.1499,0.7038,0.1024,0.007,-0.029,-0.005
1670266983.879991,-10.204,-0.439,2.689,0.1504,0.7086,0.1041,0.016,-0.031,-0.004
1670266983.919991,-10.211,-0.425,2.661,0.1479,0.7063,0.11040000000000001,0.008,-0.02,0.026000000000000002
1670266983.959991,-10.088000000000001,-0.362,2.6550000000000002,0.149,0.7016,0.1047,0.005,-0.022,0.029
1670266983.99999,-10.155,-0.366,2.664,0.15130000000000002,0.7072,0.10590000000000001,0.024,-0.027,0.001
1670266984.03999,-10.200000000000001,-0.342,2.775,0.1539,0.7029000000000001,0.1078,0.034,-0.026000000000000002,-0.015
1670266984.07999,-10.169,-0.435,2.701,0.1511,0.7054,0.10690000000000001,0.044,-0.029,-0.029
1670266984.1199899,-10.135,-0.41000000000000003,2.737,0.152,0.7029000000000001,0.1072,0.015,-0.026000000000000002,-0.003
1670266984.15999,-10.18,-0.459,2.7,0.15130000000000002,0.7046,0.10540000000000001,0.0,-0.031,0.0
1670266984.19999,-10.201,-0.379,2.6870000000000003,0.1502,0.7046,0.10640000000000001,-0.002,-0.012,0.002
1670266984.23999,-10.156,-0.389,2.719,0.151,0.7040000000000001,0.1048,-0.009000000000000001,-0.012,0.013000000000000001
1670266984.27999,-10.172,-0.371,2.733,0.152,0.7036,0.1053,-0.004,-0.009000000000000001,0.013000000000000001
1670266984.31999,-10.149000000000001,-0.362,2.748,0.15230000000000002,0.7064,0.10540000000000001,0.027,-0.007,-0.005
1670266984.35999,-10.153,-0.38,2.709,0.1514,0.7033,0.10550000000000001,0.029,-0.011,-0.016
1670266984.39999,-10.192,-0.41600000000000004,2.682,0.15230000000000002,0.7032,0.10690000000000001,0.014,-0.007,-0.001
1670266984.43999,-10.167,-0.41300000000000003,2.778,0.1497,0.7016,0.10740000000000001,0.0,-0.006,0.003
1670266984.47999,-10.147,-0.397,2.725,0.1542,0.7057,0.1032,-0.01,-0.013000000000000001,0.0
1670266984.51999,-10.152000000000001,-0.394,2.708,0.1501,0.7076,0.1044,-0.002,-0.017,0.0
1670266984.55999,-10.194,-0.378,2.708,0.15230000000000002,0.7066,0.1037,0.006,-0.01,-0.002
1670266984.59999,-10.174,-0.395,2.717,0.15230000000000002,0.7037,0.1077,0.005,-0.012,-0.003
1670266984.63999,-10.207,-0.41100000000000003,2.722,0.1516,0.7058,0.10550000000000001,-0.001,-0.013000000000000001,0.009000000000000001
1670266984.67999,-10.088000000000001,-0.441,2.739,0.1391,0.7009000000000001,0.108,0.0,-0.02,-0.003
1670266984.71999,-10.189,-0.356,2.7600000000000002,0.15280000000000002,0.7056,0.10650000000000001,0.01,-0.014,-0.001
1670266984.75999,-10.203,-0.402,2.67,0.1517,0.7071000000000001,0.10540000000000001,0.02,-0.008,0.013000000000000001
1670266984.79999,-10.19,-0.357,2.712,0.1519,0.7055,0.10740000000000001,0.033,-0.003,0.0
1670266984.83999,-10.156,-0.394,2.6430000000000002,0.1525,0.7029000000000001,0.10490000000000001,0.028,-0.014,-0.009000000000000001
1670266984.87999,-10.17,-0.40700000000000003,2.652,0.1517,0.7027,0.1066,0.012,-0.024,-0.006
1670266984.91999,-10.186,-0.417,2.735,0.1492,0.7019000000000001,0.10880000000000001,0.005,-0.018000000000000002,-0.004
1670266984.95999,-10.144,-0.417,2.789,0.1487,0.7010000000000001,0.1198,0.003,-0.021,-0.007
1670266984.99999,-10.143,-0.41500000000000004,2.758,0.1506,0.7076,0.0918,0.018000000000000002,-0.024,-0.01
1670266985.039989,-10.205,-0.387,2.713,0.1489,0.7049000000000001,0.09380000000000001,0.016,-0.022,-0.016
1670266985.079989,-10.169,-0.41300000000000003,2.739,0.1514,0.7046,0.10490000000000001,0.015,-0.022,-0.012
1670266985.119989,-10.183,-0.438,2.65,0.1531,0.7057,0.10490000000000001,-0.003,-0.022,-0.001
1670266985.1599889,-10.176,-0.378,2.724,0.14880000000000002,0.7058,0.1044,0.0,-0.021,0.003
1670266985.199989,-10.149000000000001,-0.398,2.726,0.1501,0.7037,0.1044,0.0,-0.015,-0.005
1670266985.239989,-10.19,-0.421,2.7,0.14980000000000002,0.7060000000000001,0.1032,0.0,-0.017,0.0
1670266985.279989,-10.165000000000001,-0.41100000000000003,2.71,0.1529,0.7036,0.1032,0.006,-0.012,-0.01
1670266985.319989,-10.14,-0.396,2.7640000000000002,0.15,0.7026,0.1076,0.009000000000000001,-0.019,-0.016
1670266985.359989,-10.201,-0.442,2.653,0.1514,0.7073,0.10540000000000001,0.013000000000000001,-0.028,-0.017
1670266985.399989,-10.135,-0.41200000000000003,2.775,0.1504,0.7025,0.10490000000000001,0.01,-0.027,-0.007
1670266985.439989,-10.199,-0.41100000000000003,2.749,0.1487,0.7046,0.1053,0.028,-0.014,-0.007
1670266985.479989,-10.165000000000001,-0.427,2.761,0.1519,0.7051000000000001,0.10840000000000001,0.027,-0.006,-0.008
1670266985.519989,-10.189,-0.46,2.7640000000000002,0.1499,0.7060000000000001,0.1042,0.026000000000000002,0.001,0.001
1670266985.559989,-10.188,-0.441,2.721,0.1529,0.7067,0.1022,0.006,-0.01,0.0
1670266985.599989,-10.197000000000001,-0.418,2.755,0.1535,0.7060000000000001,0.10490000000000001,0.014,-0.013000000000000001,0.012
1670266985.639989,-10.191,-0.393,2.744,0.15030000000000002,0.7042,0.1047,0.017,0.005,0.002
1670266985.679989,-10.174,-0.383,2.698,0.1532,0.7058,0.1058,0.026000000000000002,0.003,0.005
1670266985.719989,-10.118,-0.386,2.729,0.1521,0.7055,0.1032,0.022,-0.013000000000000001,0.0
1670266985.759989,-10.158,-0.392,2.718,0.1512,0.7055,0.1057,0.019,-0.021,-0.001
1670266985.799989,-10.201,-0.41100000000000003,2.727,0.1514,0.7057,0.10400000000000001,0.005,-0.014,-0.004
1670266985.839989,-10.182,-0.41400000000000003,2.717,0.1507,0.7065,0.1071,0.006,-0.011,0.005
1670266985.879989,-10.176,-0.374,2.702,0.1515,0.7041000000000001,0.10350000000000001,0.01,-0.029,-0.003
1670266985.919989,-10.191,-0.401,2.743,0.15,0.7050000000000001,0.1063,0.012,-0.018000000000000002,-0.007
1670266985.959989,-10.202,-0.383,2.724,0.1467,0.7013,0.10650000000000001,0.022,-0.017,-0.013000000000000001
1670266985.999989,-10.112,-0.42,2.7560000000000002,0.1491,0.7030000000000001,0.10540000000000001,0.022,-0.031,-0.005
1670266986.039989,-10.201,-0.396,2.711,0.1531,0.7068,0.1063,0.018000000000000002,-0.021,-0.006
1670266986.079988,-10.184000000000001,-0.392,2.7520000000000002,0.1494,0.7033,0.1033,0.029,-0.009000000000000001,-0.007
1670266986.119988,-10.157,-0.422,2.777,0.1492,0.7042,0.1051,0.017,-0.01,-0.002
1670266986.159988,-10.164,-0.462,2.718,0.1506,0.7061000000000001,0.1072,-0.004,-0.019,0.001
1670266986.199988,-10.188,-0.394,2.7520000000000002,0.15030000000000002,0.7044,0.1043,0.001,-0.021,0.004
1670266986.239988,-10.162,-0.404,2.7880000000000003,0.1487,0.7052,0.1053,-0.004,-0.023,0.002
1670266986.279988,-10.119,-0.49,2.708,0.15180000000000002,0.7046,0.1044,-0.019,-0.025,0.026000000000000002
1670266986.319988,-10.108,-0.23700000000000002,2.819,0.15280000000000002,0.7027,0.10310000000000001,0.015,-0.022,-0.017
1670266986.359988,-10.143,-0.676,2.6790000000000003,0.14850000000000002,0.7019000000000001,0.1075,-0.031,-0.032,0.064
1670266986.399988,-10.133000000000001,-0.031,2.86,0.15030000000000002,0.7053,0.1047,0.015,-0.016,-0.008
1670266986.439988,-10.091000000000001,-0.584,2.734,0.1434,0.7012,0.11370000000000001,-0.028,-0.039,0.043000000000000003
1670266986.479988,-10.158,-0.221,2.822,0.1516,0.7049000000000001,0.1085,-0.019,-0.013000000000000001,0.023
1670266986.519988,-10.25,-0.627,2.695,0.1501,0.7020000000000001,0.1044,-0.05,-0.021,0.059000000000000004
1670266986.559988,-10.091000000000001,-0.34900000000000003,2.7520000000000002,0.15280000000000002,0.7029000000000001,0.1041,-0.051000000000000004,-0.024,0.047
1670266986.599988,-10.091000000000001,-0.611,2.637,0.1532,0.7043,0.10160000000000001,-0.106,-0.069,0.07
1670266986.639988,-10.157,-0.214,2.863,0.1496,0.7016,0.1034,-0.19,-0.06,0.105
1670266986.679988,-10.238,-0.496,2.782,0.1395,0.6982,0.10360000000000001,-0.20600000000000002,-0.045,0.07
1670266986.719988,-10.256,-0.116,2.875,0.15130000000000002,0.7029000000000001,0.1022,-0.17500000000000002,-0.035,-0.018000000000000002
1670266986.759988,-10.111,-0.14,2.802,0.15030000000000002,0.7013,0.0954,-0.045,-0.013000000000000001,-0.031
1670266986.799988,-10.09,-0.183,2.816,0.152,0.6994,0.0781,-0.035,-0.013000000000000001,-0.037
1670266986.839988,-10.149000000000001,-0.362,2.851,0.153,0.7035,0.12350000000000001,-0.04,-0.01,0.005
1670266986.879988,-10.076,-0.426,2.86,0.1517,0.7037,0.1101,-0.004,-0.019,-0.018000000000000002
1670266986.919988,-10.146,-0.367,2.816,0.15480000000000002,0.7058,0.10160000000000001,-0.05,-0.027,-0.013000000000000001
1670266986.959988,-10.135,-0.47800000000000004,2.818,0.1507,0.7065,0.09970000000000001,-0.095,-0.043000000000000003,0.014
1670266986.999988,-10.163,-0.296,2.876,0.1495,0.7066,0.1028,-0.051000000000000004,-0.03,-0.012
1670266987.039988,-10.115,-0.464,2.7760000000000002,0.1529,0.7049000000000001,0.099,-0.073,-0.029,-0.01
1670266987.079988,-10.134,-0.426,2.811,0.1506,0.7032,0.09860000000000001,-0.063,-0.031,-0.016
1670266987.119987,-10.111,-0.375,2.846,0.1525,0.7043,0.10110000000000001,-0.048,-0.033,-0.014
1670266987.159987,-10.134,-0.389,2.875,0.1525,0.7074,0.0971,-0.027,-0.027,-0.028
1670266987.199987,-10.103,-0.531,2.867,0.14400000000000002,0.7035,0.1008,0.029,-0.024,-0.035
1670266987.239987,-10.059000000000001,-0.556,2.875,0.15230000000000002,0.7055,0.0993,0.018000000000000002,-0.026000000000000002,-0.009000000000000001
1670266987.279987,-10.073,-0.517,2.8890000000000002,0.1522,0.7080000000000001,0.1008,0.019,-0.043000000000000003,-0.001
1670266987.319987,-10.109,-0.47600000000000003,2.843,0.1495,0.7094,0.0999,0.02,-0.046,-0.016
1670266987.359987,-10.087,-0.395,2.817,0.1484,0.7079000000000001,0.0998,0.025,-0.035,-0.005
1670266987.399987,-9.981,-0.382,2.814,0.15180000000000002,0.7081000000000001,0.1013,0.034,-0.08,0.0
1670266987.439987,-10.094,-0.433,2.945,0.151,0.7088,0.1013,0.066,-0.06,0.004
1670266987.479987,-10.171,-0.371,3.024,0.1521,0.7058,0.1042,0.122,-0.01,-0.038
1670266987.519987,-10.155,-0.547,3.045,0.15180000000000002,0.7079000000000001,0.1033,0.114,0.002,-0.031
1670266987.559987,-10.073,-0.578,3.009,0.14930000000000002,0.7065,0.10250000000000001,0.033,-0.013000000000000001,0.02
1670266987.599987,-10.02,-0.467,3.023,0.1524,0.7079000000000001,0.1028,0.028,-0.02,0.047
1670266987.639987,-10.172,-0.231,2.986,0.1526,0.7064,0.10400000000000001,0.079,-0.01,-0.031
1670266987.679987,-10.127,-0.432,2.988,0.14780000000000001,0.7079000000000001,0.10540000000000001,0.095,0.007,-0.049
1670266987.719987,-10.089,-0.47100000000000003,2.912,0.1479,0.7058,0.1165,0.08600000000000001,0.0,-0.018000000000000002
1670266987.759987,-10.085,-0.278,3.0620000000000003,0.1512,0.7091000000000001,0.1022,0.136,0.023,-0.053
1670266987.799987,-10.124,-0.365,2.979,0.1499,0.7055,0.1051,0.182,0.028,-0.098
1670266987.839987,-10.11,-0.523,2.816,0.1507,0.7079000000000001,0.1057,0.162,0.032,-0.106
1670266987.879987,-10.116,-0.46,2.8770000000000002,0.1482,0.7072,0.1067,0.158,0.016,-0.097
1670266987.919987,-10.073,-0.62,2.9,0.1502,0.7094,0.10790000000000001,0.1,-0.002,-0.066
1670266987.959987,-10.063,-0.606,2.907,0.14980000000000002,0.7071000000000001,0.10690000000000001,0.029,-0.032,0.001
1670266987.999987,-10.082,-0.515,2.974,0.1492,0.7078,0.1058,0.013000000000000001,-0.034,-0.003
1670266988.0399868,-10.084,-0.485,2.954,0.149,0.7095,0.1082,0.016,-0.03,-0.022
1670266988.079987,-10.068,-0.499,2.938,0.1499,0.7095,0.1071,0.018000000000000002,-0.014,-0.012
1670266988.119987,-10.05,-0.552,2.955,0.1494,0.7079000000000001,0.1096,-0.001,-0.01,0.008
1670266988.159986,-10.031,-0.524,2.988,0.14980000000000002,0.7077,0.10690000000000001,0.014,0.002,0.02
1670266988.199986,-10.137,-0.456,2.9370000000000003,0.1456,0.7048,0.115,0.025,0.013000000000000001,0.008
1670266988.239986,-10.123,-0.445,2.902,0.1471,0.7079000000000001,0.11230000000000001,0.036000000000000004,0.008,0.003
1670266988.279986,-10.053,-0.529,2.894,0.1521,0.7068,0.10600000000000001,0.03,-0.004,0.016
1670266988.319986,-10.075000000000001,-0.515,2.903,0.15030000000000002,0.7072,0.1071,0.003,-0.014,0.012
1670266988.359986,-10.08,-0.481,2.932,0.15180000000000002,0.7074,0.1066,0.012,-0.012,-0.002
1670266988.399986,-10.13,-0.451,2.944,0.1486,0.7071000000000001,0.1068,0.018000000000000002,-0.01,-0.007
1670266988.439986,-10.127,-0.428,2.967,0.1496,0.7058,0.1077,0.009000000000000001,0.005,0.001
1670266988.479986,-10.125,-0.46,2.907,0.1479,0.7060000000000001,0.1072,0.015,0.014,0.001
1670266988.519986,-10.113,-0.445,2.886,0.1511,0.7101000000000001,0.1052,0.031,0.004,-0.005
1670266988.559986,-10.107000000000001,-0.492,2.816,0.15180000000000002,0.7081000000000001,0.108,0.028,-0.006,-0.003
1670266988.599986,-10.091000000000001,-0.487,2.892,0.1487,0.7038,0.1063,0.024,-0.008,0.005
1670266988.639986,-10.111,-0.467,2.834,0.1486,0.7094,0.0966,0.029,-0.003,0.0
1670266988.679986,-10.123,-0.455,2.852,0.1474,0.7076,0.1178,0.033,-0.001,-0.007
1670266988.719986,-10.085,-0.47100000000000003,2.9,0.14700000000000002,0.7079000000000001,0.1179,0.018000000000000002,-0.004,-0.005
1670266988.759986,-10.101,-0.47200000000000003,2.848,0.1495,0.7065,0.11810000000000001,0.016,-0.009000000000000001,0.0
1670266988.799986,-10.067,-0.489,2.879,0.1486,0.7085,0.1063,0.02,-0.012,-0.003
1670266988.8399858,-10.146,-0.462,2.858,0.1501,0.7072,0.10690000000000001,0.025,-0.011,-0.004
1670266988.879986,-10.14,-0.448,2.894,0.1509,0.7074,0.10550000000000001,0.036000000000000004,-0.003,-0.016
1670266988.919986,-10.068,-0.503,2.8810000000000002,0.1495,0.7063,0.1053,0.047,-0.003,-0.01
1670266988.959986,-10.168000000000001,-0.47100000000000003,2.892,0.1469,0.7074,0.10600000000000001,0.026000000000000002,-0.009000000000000001,-0.001
1670266988.999986,-10.223,-0.449,2.849,0.14850000000000002,0.7058,0.10490000000000001,0.024,0.003,0.028
1670266989.039986,-10.118,-0.46,2.7560000000000002,0.15130000000000002,0.7071000000000001,0.1073,0.022,0.015,0.012
1670266989.0799859,-10.067,-0.405,2.81,0.15180000000000002,0.7046,0.10540000000000001,0.036000000000000004,0.009000000000000001,0.003
1670266989.119986,-10.129,-0.437,2.833,0.1521,0.7090000000000001,0.1048,0.039,-0.003,-0.001
1670266989.159986,-10.165000000000001,-0.437,2.861,0.15410000000000001,0.7052,0.1028,0.025,-0.01,-0.001
1670266989.199986,-10.075000000000001,-0.493,2.813,0.1514,0.7049000000000001,0.10540000000000001,0.026000000000000002,-0.012,-0.006
1670266989.239986,-10.098,-0.364,2.9050000000000002,0.14780000000000001,0.7047,0.1048,0.044,-0.025,-0.017
1670266989.279985,-10.113,-0.463,2.814,0.1515,0.7072,0.10540000000000001,0.054,-0.033,-0.018000000000000002
1670266989.319985,-10.125,-0.29,2.912,0.1507,0.7067,0.1038,0.075,-0.013000000000000001,-0.036000000000000004
1670266989.359985,-10.105,-0.41400000000000003,2.865,0.1505,0.7085,0.10790000000000001,0.12,0.006,-0.066
1670266989.399985,-10.145,-0.468,2.765,0.1489,0.7097,0.1063,0.123,0.002,-0.06
1670266989.439985,-10.158,-0.167,2.884,0.1501,0.7062,0.1078,0.213,0.019,-0.132
1670266989.479985,-10.15,-0.396,2.863,0.1501,0.7082,0.1063,0.28,0.052000000000000005,-0.198
1670266989.519985,-10.132,-0.756,2.775,0.1448,0.7102,0.11180000000000001,0.225,0.036000000000000004,-0.153
1670266989.559985,-10.042,-0.7020000000000001,2.7920000000000003,0.1449,0.7124,0.11040000000000001,0.095,-0.001,-0.037
1670266989.599985,-10.084,-0.905,2.699,0.1468,0.7079000000000001,0.1114,-0.007,-0.025,0.019
1670266989.6399848,-10.093,-0.533,2.744,0.1479,0.7082,0.1102,-0.041,-0.027,0.035
1670266989.679985,-10.077,-0.486,2.7520000000000002,0.14730000000000001,0.7110000000000001,0.10930000000000001,-0.009000000000000001,-0.024,0.019
1670266989.719985,-10.089,-0.586,2.7680000000000002,0.13440000000000002,0.7058,0.11800000000000001,-0.007,-0.04,0.0
1670266989.759985,-10.187,-0.547,2.824,0.1452,0.7084,0.1121,-0.023,-0.031,0.043000000000000003
1670266989.799985,-10.191,-0.589,2.778,0.1467,0.7092,0.11230000000000001,-0.046,-0.01,0.075
1670266989.839985,-10.115,-0.465,2.783,0.14930000000000002,0.7055,0.1135,-0.049,-0.017,0.056
1670266989.8799849,-10.095,-0.429,2.843,0.1482,0.7072,0.1105,-0.03,-0.025,0.048
1670266989.919985,-10.126,-0.375,2.904,0.1484,0.7063,0.10890000000000001,-0.007,-0.035,0.003
1670266989.959985,-10.161,-0.403,2.874,0.1471,0.7080000000000001,0.1101,0.02,-0.03,-0.012
1670266989.999985,-10.126,-0.498,2.86,0.1517,0.7072,0.1105,0.036000000000000004,-0.031,-0.023
1670266990.039985,-10.071,-0.435,2.891,0.14650000000000002,0.7071000000000001,0.1106,0.025,-0.04,-0.01
1670266990.079985,-10.105,-0.517,2.939,0.14780000000000001,0.7070000000000001,0.11030000000000001,0.018000000000000002,-0.034,-0.02
1670266990.1199849,-10.146,-0.45,2.888,0.1467,0.7083,0.114,0.029,-0.019,-0.013000000000000001
1670266990.159985,-10.092,-0.505,2.874,0.1463,0.7079000000000001,0.1081,0.024,-0.019,-0.011
1670266990.199985,-10.067,-0.48,2.906,0.136,0.7059000000000001,0.11620000000000001,0.016,-0.021,-0.003
1670266990.239985,-10.111,-0.466,2.891,0.14700000000000002,0.7055,0.10880000000000001,0.017,-0.017,-0.003
1670266990.279985,-10.114,-0.492,2.8810000000000002,0.1438,0.7072,0.11470000000000001,0.019,-0.014,-0.007
1670266990.319984,-10.118,-0.496,2.895,0.1495,0.7072,0.10940000000000001,0.003,-0.01,0.002
1670266990.359984,-10.128,-0.49,2.8850000000000002,0.1469,0.7085,0.1131,-0.006,-0.013000000000000001,-0.004
1670266990.399984,-10.061,-0.47200000000000003,2.9410000000000003,0.15,0.7071000000000001,0.10890000000000001,0.008,-0.014,-0.011
1670266990.4399838,-10.1,-0.459,2.884,0.14700000000000002,0.7076,0.1295,0.026000000000000002,-0.007,-0.012
1670266990.479984,-10.111,-0.47500000000000003,2.96,0.1437,0.7095,0.1106,0.029,-0.008,-0.008
1670266990.519984,-10.120000000000001,-0.499,2.9250000000000003,0.13720000000000002,0.7062,0.0983,0.023,-0.018000000000000002,-0.002
1670266990.559984,-10.133000000000001,-0.495,2.878,0.1492,0.7069000000000001,0.1328,0.015,-0.008,0.009000000000000001
1670266990.599984,-10.123,-0.5,2.828,0.1468,0.7062,0.0979,0.023,0.001,0.016
1670266990.639984,-10.098,-0.445,2.874,0.1484,0.7074,0.1173,0.017,0.011,0.011
1670266990.6799839,-10.092,-0.46900000000000003,2.878,0.1506,0.7082,0.10790000000000001,0.026000000000000002,-0.009000000000000001,0.001
1670266990.719984,-10.083,-0.481,2.911,0.1501,0.7061000000000001,0.1096,0.02,-0.015,-0.007
1670266990.759984,-10.177,-0.465,2.873,0.1487,0.7074,0.1101,0.014,-0.016,-0.004
1670266990.799984,-10.101,-0.47400000000000003,2.89,0.1492,0.7093,0.10830000000000001,0.014,-0.027,-0.012
1670266990.839984,-10.093,-0.457,2.903,0.14700000000000002,0.7090000000000001,0.1119,0.018000000000000002,-0.024,-0.01
1670266990.879984,-10.13,-0.491,2.842,0.1495,0.7078,0.1085,0.023,-0.014,-0.011
1670266990.9199839,-10.144,-0.47700000000000004,2.873,0.14700000000000002,0.7084,0.10980000000000001,0.01,-0.01,-0.003
1670266990.959984,-10.092,-0.456,2.92,0.1484,0.7094,0.1073,0.014,-0.008,0.0
1670266990.999984,-10.126,-0.486,2.869,0.14850000000000002,0.7072,0.1082,0.012,-0.004,-0.002
1670266991.039984,-10.118,-0.47400000000000003,2.867,0.1464,0.7085,0.11130000000000001,0.007,-0.012,0.002
1670266991.079984,-10.129,-0.487,2.842,0.1491,0.7098,0.1082,0.014,-0.014,-0.004
1670266991.119984,-10.105,-0.51,2.833,0.1501,0.7088,0.10880000000000001,0.009000000000000001,-0.016,-0.004
1670266991.1599839,-10.109,-0.48,2.866,0.1484,0.7088,0.109,0.01,-0.015,-0.006
1670266991.199984,-10.117,-0.501,2.851,0.1504,0.7091000000000001,0.1097,0.012,-0.017,-0.006
1670266991.239984,-10.113,-0.483,2.896,0.1467,0.7069000000000001,0.1085,0.01,-0.013000000000000001,-0.002
1670266991.279984,-10.115,-0.508,2.799,0.1476,0.7090000000000001,0.11040000000000001,0.021,-0.017,0.001
1670266991.319984,-10.103,-0.47800000000000004,2.895,0.14750000000000002,0.7068,0.11130000000000001,0.022,-0.018000000000000002,-0.003
1670266991.359983,-10.07,-0.488,2.847,0.14730000000000001,0.7080000000000001,0.10980000000000001,0.02,-0.012,-0.004
1670266991.399983,-10.036,-0.542,2.875,0.1474,0.7067,0.10690000000000001,0.014,-0.019,-0.012
1670266991.439983,-10.153,-0.496,2.884,0.1464,0.7108,0.1091,0.009000000000000001,-0.008,0.004
1670266991.4799829,-10.141,-0.507,2.842,0.1499,0.7090000000000001,0.1096,0.012,0.002,0.014
1670266991.519983,-10.128,-0.424,2.835,0.1463,0.7024,0.10540000000000001,0.028,0.009000000000000001,0.009000000000000001
1670266991.559983,-10.05,-0.486,2.7920000000000003,0.1497,0.7101000000000001,0.1091,0.028,-0.004,-0.006
1670266991.599983,-10.131,-0.485,2.818,0.1486,0.7072,0.1052,0.027,-0.024,-0.027
1670266991.639983,-10.157,-0.501,2.89,0.1496,0.7093,0.10790000000000001,0.022,-0.021,-0.012
1670266991.679983,-10.13,-0.542,2.916,0.1497,0.7108,0.1092,0.002,-0.027,-0.002
1670266991.7199829,-10.091000000000001,-0.44,2.931,0.1471,0.7121000000000001,0.1091,0.016,-0.027,-0.005
1670266991.759983,-10.133000000000001,-0.493,2.844,0.1456,0.7088,0.11180000000000001,0.028,-0.017,-0.012
1670266991.799983,-10.107000000000001,-0.487,2.887,0.1495,0.7071000000000001,0.1106,0.025,-0.015,-0.01
1670266991.839983,-10.092,-0.509,2.895,0.1476,0.7094,0.1085,0.012,-0.015,0.002
1670266991.879983,-10.123,-0.465,2.888,0.1501,0.7096,0.11040000000000001,0.014,-0.011,0.0
1670266991.919983,-10.084,-0.481,2.8810000000000002,0.1492,0.7099000000000001,0.10930000000000001,0.01,-0.012,-0.003
1670266991.9599829,-10.105,-0.493,2.88,0.138,0.7062,0.1159,0.005,-0.008,0.009000000000000001
1670266991.999983,-10.101,-0.532,2.872,0.1487,0.7107,0.11170000000000001,-0.013000000000000001,-0.008,0.026000000000000002
1670266992.039983,-10.126,-0.38,2.854,0.1449,0.7102,0.113,0.011,-0.003,-0.011
1670266992.079983,-10.120000000000001,-0.6,2.855,0.14850000000000002,0.7066,0.1071,-0.024,-0.013000000000000001,0.034
1670266992.119983,-10.095,-0.487,2.934,0.1496,0.7086,0.1105,-0.022,-0.016,0.039
1670266992.159983,-10.040000000000001,-0.354,2.915,0.14650000000000002,0.7072,0.10880000000000001,-0.011,-0.01,0.005
1670266992.199983,-10.059000000000001,-0.708,2.852,0.149,0.7093,0.10690000000000001,-0.068,-0.036000000000000004,0.051000000000000004
1670266992.239983,-10.066,-0.368,2.884,0.1515,0.7077,0.10930000000000001,-0.107,-0.056,0.034
1670266992.279983,-10.075000000000001,-0.47300000000000003,2.974,0.1345,0.7041000000000001,0.11560000000000001,-0.099,-0.034,0.023
1670266992.319983,-10.205,-0.5660000000000001,2.995,0.1477,0.7078,0.1107,-0.117,0.011,0.031
1670266992.359983,-10.156,-0.316,3.012,0.1476,0.7098,0.0951,-0.038,0.067,0.0
1670266992.399982,-10.049,-0.456,2.7840000000000003,0.1476,0.7077,0.0932,-0.012,0.041,-0.007
1670266992.439982,-10.031,-0.579,2.7760000000000002,0.14830000000000002,0.7071000000000001,0.0912,-0.051000000000000004,-0.009000000000000001,0.06
1670266992.479982,-10.132,-0.47200000000000003,2.906,0.1471,0.7102,0.10690000000000001,-0.081,-0.04,0.055
1670266992.5199819,-10.107000000000001,-0.619,2.852,0.1469,0.7063,0.0952,-0.131,-0.053,0.058
1670266992.559982,-10.132,-0.518,2.847,0.1506,0.7101000000000001,0.1019,-0.176,-0.07100000000000001,0.042
1670266992.599982,-10.064,-0.481,2.907,0.152,0.7080000000000001,0.1027,-0.20800000000000002,-0.089,0.048
1670266992.639982,-10.142,-0.289,2.918,0.14650000000000002,0.7097,0.1022,-0.196,-0.062,0.004
1670266992.679982,-10.154,-0.40800000000000003,2.938,0.14980000000000002,0.7096,0.0995,-0.171,-0.031,-0.036000000000000004
1670266992.719982,-10.069,-0.40700000000000003,2.953,0.1499,0.7094,0.10070000000000001,-0.112,-0.025,-0.008
1670266992.7599819,-10.117,-0.41300000000000003,3.0180000000000002,0.1514,0.7107,0.101,-0.06,-0.015,-0.024
1670266992.799982,-10.103,-0.506,2.942,0.1509,0.7122,0.0994,0.002,-0.018000000000000002,-0.017
1670266992.839982,-10.031,-0.597,2.953,0.14930000000000002,0.7122,0.098,0.011,-0.025,-0.011
1670266992.879982,-10.009,-0.5690000000000001,2.931,0.1517,0.7138,0.10300000000000001,0.004,-0.03,-0.002
1670266992.919982,-10.034,-0.589,2.861,0.1496,0.7148,0.0998,-0.012,-0.06,-0.006
1670266992.959982,-10.081,-0.436,3.0540000000000003,0.1506,0.7125,0.1015,0.024,-0.074,-0.015
1670266992.9999819,-10.061,-0.6880000000000001,2.986,0.1501,0.7138,0.1008,0.044,-0.036000000000000004,-0.024
1670266993.039982,-10.105,-0.602,3.003,0.14700000000000002,0.7123,0.1019,0.03,-0.04,-0.013000000000000001
1670266993.079982,-10.143,-0.47500000000000003,3.024,0.1462,0.7132000000000001,0.1029,0.09,-0.011,-0.019
1670266993.119982,-10.118,-0.383,3.059,0.1504,0.7144,0.10310000000000001,0.209,0.032,-0.08700000000000001
1670266993.159982,-10.068,-0.547,3.0700000000000003,0.1484,0.7116,0.1017,0.25,0.038,-0.121
1670266993.199982,-10.092,-0.6,2.997,0.1474,0.7114,0.1044,0.266,0.062,-0.11800000000000001
1670266993.239982,-10.117,-0.743,2.89,0.14650000000000002,0.7127,0.1037,0.199,0.038,-0.069
1670266993.279982,-10.065,-0.642,2.869,0.1501,0.7127,0.10360000000000001,0.14400000000000002,0.016,-0.01
1670266993.319982,-10.033,-0.709,2.9010000000000002,0.1492,0.7132000000000001,0.1066,0.088,-0.001,0.007
1670266993.359982,-10.025,-0.56,2.967,0.1468,0.7114,0.1075,0.053,-0.026000000000000002,0.023
1670266993.399982,-10.077,-0.453,2.977,0.14980000000000002,0.7083,0.10840000000000001,0.073,-0.02,-0.001
1670266993.439981,-10.056000000000001,-0.589,2.9090000000000003,0.1482,0.7097,0.1077,0.07,-0.023,-0.017
1670266993.479981,-10.097,-0.531,2.958,0.1484,0.7108,0.1114,0.052000000000000005,-0.023,0.006
1670266993.519981,-10.053,-0.532,3.027,0.14600000000000002,0.7096,0.1085,0.026000000000000002,-0.018000000000000002,0.001
1670266993.5599809,-10.081,-0.528,2.949,0.1446,0.7080000000000001,0.1086,0.026000000000000002,-0.018000000000000002,0.001
1670266993.599981,-10.065,-0.492,2.988,0.1497,0.7084,0.1077,0.041,-0.015,-0.008
1670266993.639981,-10.065,-0.488,2.949,0.1462,0.7097,0.108,0.052000000000000005,-0.008,-0.012
1670266993.679981,-10.099,-0.507,2.971,0.15080000000000002,0.7104,0.1062,0.044,-0.007,-0.009000000000000001
1670266993.719981,-10.065,-0.529,2.946,0.1474,0.7096,0.10840000000000001,0.024,-0.011,-0.001
1670266993.759981,-10.083,-0.524,2.984,0.1471,0.7093,0.10650000000000001,0.016,-0.015,-0.008
1670266993.7999809,-10.049,-0.555,2.94,0.14800000000000002,0.7101000000000001,0.1091,0.01,-0.017,-0.012
1670266993.839981,-10.081,-0.54,3.051,0.1463,0.7111000000000001,0.10840000000000001,0.016,-0.021,-0.011
1670266993.879981,-10.047,-0.493,2.966,0.1462,0.7121000000000001,0.108,0.02,-0.015,-0.006
1670266993.919981,-10.128,-0.526,2.958,0.1492,0.7114,0.10690000000000001,0.022,-0.007,-0.01
1670266993.959981,-10.08,-0.5740000000000001,2.984,0.1463,0.7087,0.1082,0.024,-0.006,-0.01
1670266993.999981,-10.079,-0.5760000000000001,2.997,0.1432,0.7109000000000001,0.1076,0.008,-0.012,-0.002
1670266994.039981,-10.083,-0.553,2.955,0.1457,0.7099000000000001,0.11520000000000001,0.005,-0.009000000000000001,0.008
1670266994.079981,-10.107000000000001,-0.516,2.999,0.1477,0.7106,0.10840000000000001,0.022,0.0,0.01
1670266994.119981,-10.133000000000001,-0.507,2.989,0.1479,0.7099000000000001,0.1072,0.03,0.007,0.005
1670266994.159981,-10.079,-0.451,2.952,0.1491,0.7102,0.1095,0.034,0.008,0.005
1670266994.199981,-10.028,-0.561,2.951,0.14700000000000002,0.7099000000000001,0.1109,0.023,-0.012,-0.008
1670266994.239981,-10.05,-0.516,2.931,0.1454,0.7115,0.11900000000000001,0.01,-0.014,-0.005
1670266994.279981,-10.143,-0.539,2.968,0.1345,0.7041000000000001,0.10600000000000001,0.009000000000000001,-0.015,0.002
1670266994.319981,-10.065,-0.493,3.024,0.1456,0.7100000000000001,0.11040000000000001,0.004,-0.017,0.005
1670266994.359981,-10.077,-0.499,2.986,0.14600000000000002,0.7102,0.116,0.012,-0.008,0.0
1670266994.399981,-10.086,-0.557,2.94,0.1476,0.7068,0.1041,0.027,-0.004,-0.012
1670266994.439981,-10.101,-0.553,2.953,0.14800000000000002,0.7084,0.10740000000000001,0.015,-0.009000000000000001,0.004
1670266994.399981,-10.073,-0.498,2.928,0.15180000000000002,0.7102,0.1086,0.004,-0.013000000000000001,0.011
1670266994.439981,-10.103,-0.507,2.967,0.1463,0.7071000000000001,0.1058,0.008,-0.01,-0.001
1670266994.47998,-10.074,-0.519,2.947,0.1492,0.7108,0.1085,0.007,-0.01,0.007
1670266994.51998,-10.085,-0.483,2.927,0.1481,0.7095,0.1071,0.021,-0.011,-0.01
1670266994.55998,-10.066,-0.5710000000000001,2.9250000000000003,0.1481,0.7089000000000001,0.1029,0.025,-0.01,-0.01
1670266994.5999799,-10.062,-0.529,2.946,0.1492,0.7107,0.1076,-0.002,-0.021,0.016
1670266994.63998,-10.094,-0.486,2.991,0.1476,0.7120000000000001,0.1024,0.008,-0.021,-0.009000000000000001
1670266994.67998,-10.1,-0.524,2.984,0.14780000000000001,0.7087,0.10880000000000001,0.002,-0.01,-0.007
1670266994.71998,-10.073,-0.46,3.0,0.1453,0.7096,0.11230000000000001,0.04,-0.011,-0.029
1670266994.75998,-9.965,-0.615,2.973,0.1466,0.7137,0.10790000000000001,0.049,-0.01,-0.037
1670266994.79998,-10.097,-0.453,3.021,0.1454,0.7118,0.108,0.038,-0.018000000000000002,-0.007
1670266994.83998,-10.165000000000001,-0.189,3.134,0.1507,0.7105,0.1086,0.155,0.024,-0.064
1670266994.87998,-10.05,-0.279,2.998,0.1463,0.7119000000000001,0.10830000000000001,0.34600000000000003,0.079,-0.229
1670266994.91998,-10.084,-0.6880000000000001,2.781,0.1437,0.7126,0.10990000000000001,0.34800000000000003,0.076,-0.218
1670266994.95998,-10.064,-0.887,2.815,0.1436,0.7141000000000001,0.1076,0.20700000000000002,0.031,-0.107
1670266994.99998,-10.146,-0.988,2.82,0.1467,0.7154,0.1115,0.013000000000000001,-0.011,0.024
1670266995.03998,-10.009,-0.769,2.849,0.14450000000000002,0.7128,0.1081,-0.059000000000000004,-0.031,0.042
1670266995.07998,-10.094,-0.462,2.924,0.1462,0.7090000000000001,0.1086,-0.037,-0.031,0.011
1670266995.11998,-10.018,-0.654,2.845,0.1463,0.7110000000000001,0.1095,-0.011,-0.046,0.001
1670266995.15998,-10.007,-0.577,2.904,0.1489,0.7151000000000001,0.1071,0.003,-0.063,-0.025
1670266995.19998,-10.123,-0.668,2.914,0.1451,0.7130000000000001,0.1131,-0.001,-0.041,0.012
1670266995.23998,-10.015,-0.684,2.961,0.1432,0.7103,0.10830000000000001,-0.018000000000000002,-0.039,0.067
1670266995.27998,-10.097,-0.457,2.976,0.1453,0.7117,0.1125,0.023,-0.032,0.008
1670266995.31998,-10.120000000000001,-0.549,2.93,0.1468,0.7119000000000001,0.11320000000000001,0.018000000000000002,-0.028,-0.001
1670266995.35998,-10.058,-0.654,2.907,0.1452,0.7111000000000001,0.11080000000000001,-0.036000000000000004,-0.021,0.036000000000000004
1670266995.39998,-9.956,-0.6990000000000001,2.895,0.1448,0.7082,0.11170000000000001,-0.057,-0.036000000000000004,0.049
1670266995.43998,-10.092,-0.459,3.001,0.1462,0.7122,0.1109,-0.013000000000000001,-0.047,-0.013000000000000001
1670266995.47998,-10.14,-0.516,2.957,0.1434,0.7140000000000001,0.111,0.013000000000000001,-0.037,-0.041
1670266995.519979,-10.131,-0.598,2.976,0.1451,0.7123,0.1124,0.025,-0.02,-0.019
1670266995.559979,-10.065,-0.583,3.045,0.1463,0.7106,0.11040000000000001,0.038,-0.015,-0.013000000000000001
1670266995.599979,-10.025,-0.604,3.011,0.1436,0.7137,0.11320000000000001,0.044,-0.027,-0.021
1670266995.639979,-10.062,-0.651,3.007,0.1456,0.7130000000000001,0.1115,0.026000000000000002,-0.012,0.007
1670266995.679979,-10.133000000000001,-0.593,2.98,0.1448,0.7118,0.1115,0.025,-0.004,0.026000000000000002
1670266995.719979,-10.082,-0.5660000000000001,3.001,0.1395,0.7093,0.1105,0.031,0.008,0.012
1670266995.759979,-10.083,-0.51,2.997,0.1444,0.7126,0.11370000000000001,0.039,0.002,-0.002
1670266995.799979,-10.003,-0.586,3.031,0.1462,0.7140000000000001,0.11040000000000001,0.032,-0.014,-0.018000000000000002
1670266995.839979,-10.077,-0.602,3.003,0.1434,0.7118,0.11380000000000001,0.016,-0.02,-0.012
1670266995.879979,-10.048,-0.625,2.989,0.1424,0.7105,0.1121,-0.001,-0.025,-0.001
1670266995.919979,-10.058,-0.559,2.998,0.1456,0.7116,0.11080000000000001,0.013000000000000001,-0.024,0.004
1670266995.959979,-10.062,-0.526,3.048,0.1416,0.7097,0.13240000000000002,0.016,-0.023,-0.001
1670266995.999979,-10.064,-0.5630000000000001,3.0060000000000002,0.1431,0.7119000000000001,0.1254,0.016,-0.013000000000000001,-0.01
1670266996.039979,-10.046,-0.584,2.995,0.1432,0.7105,0.098,0.005,-0.015,0.003
1670266996.079979,-10.032,-0.5680000000000001,2.979,0.1446,0.7122,0.1303,-0.002,-0.012,0.003
1670266996.119979,-10.086,-0.561,2.931,0.1438,0.7121000000000001,0.11950000000000001,0.001,-0.008,0.003
1670266996.159979,-10.046,-0.593,2.996,0.14550000000000002,0.7102,0.1101,0.0,-0.005,-0.003
1670266996.199979,-10.023,-0.5650000000000001,3.0460000000000003,0.1434,0.7124,0.11270000000000001,0.0,-0.006,-0.007
1670266996.239979,-10.035,-0.582,3.024,0.1406,0.7106,0.1173,0.004,-0.006,-0.012
1670266996.279979,-10.055,-0.5740000000000001,3.003,0.14250000000000002,0.7095,0.11030000000000001,0.0,-0.022,-0.005
1670266996.319979,-10.058,-0.589,3.0060000000000002,0.1438,0.7124,0.10990000000000001,0.003,-0.019,-0.003
1670266996.359979,-10.065,-0.584,2.988,0.1439,0.7099000000000001,0.1096,0.013000000000000001,-0.014,-0.006
1670266996.399979,-10.065,-0.587,2.968,0.1437,0.7137,0.11230000000000001,0.018000000000000002,-0.011,-0.007
1670266996.439979,-10.014,-0.594,3.0540000000000003,0.1464,0.7116,0.11270000000000001,0.015,-0.017,-0.011
1670266996.479979,-10.062,-0.61,3.028,0.1441,0.7133,0.1066,0.011,-0.022,0.0
1670266996.519979,-10.084,-0.641,2.974,0.14350000000000002,0.7115,0.1134,0.02,-0.012,0.006
1670266996.559978,-10.05,-0.554,2.991,0.1443,0.7126,0.112,0.026000000000000002,-0.003,0.008
1670266996.599978,-9.98,-0.612,2.958,0.1456,0.7124,0.1115,0.036000000000000004,-0.008,-0.001
1670266996.639978,-10.055,-0.577,2.984,0.1449,0.7129000000000001,0.1095,0.03,-0.02,-0.01
1670266996.679978,-10.136000000000001,-0.542,3.0060000000000002,0.1464,0.7129000000000001,0.1131,0.026000000000000002,-0.022,-0.01
1670266996.719978,-10.065,-0.639,2.989,0.14300000000000002,0.7101000000000001,0.1116,0.013000000000000001,-0.021,-0.001
1670266996.759978,-10.040000000000001,-0.538,3.043,0.14200000000000002,0.7121000000000001,0.11130000000000001,0.016,-0.023,0.01
1670266996.799978,-10.063,-0.5710000000000001,3.04,0.14650000000000002,0.7093,0.1107,0.021,-0.023,-0.004
1670266996.839978,-10.088000000000001,-0.5640000000000001,3.013,0.1448,0.7125,0.1121,0.027,-0.007,-0.008
1670266996.879978,-10.029,-0.584,3.028,0.1462,0.7119000000000001,0.11120000000000001,0.017,-0.013000000000000001,0.005
1670266996.919978,-10.035,-0.558,2.99,0.14400000000000002,0.7144,0.1107,0.004,-0.014,0.005
1670266996.959978,-10.101,-0.5630000000000001,2.954,0.1448,0.7119000000000001,0.1121,0.009000000000000001,-0.008,-0.011
1670266996.999978,-10.064,-0.591,3.003,0.1419,0.7118,0.1182,0.006,-0.015,-0.007
1670266997.039978,-10.02,-0.562,3.016,0.1447,0.7113,0.1126,0.004,-0.015,-0.009000000000000001
1670266997.079978,-10.079,-0.594,2.973,0.1444,0.7138,0.1134,0.0,-0.018000000000000002,-0.006
1670266997.119978,-10.028,-0.609,2.995,0.1429,0.7151000000000001,0.1143,0.004,-0.027,-0.008
1670266997.159978,-10.098,-0.603,3.004,0.1481,0.7142000000000001,0.11130000000000001,0.007,-0.019,-0.003
1670266997.199978,-10.057,-0.585,3.078,0.1459,0.7112,0.10980000000000001,0.019,-0.018000000000000002,-0.01
1670266997.239978,-9.999,-0.552,3.013,0.14600000000000002,0.7134,0.11080000000000001,0.021,-0.027,-0.005
1670266997.279978,-10.018,-0.6960000000000001,3.025,0.1438,0.7131000000000001,0.11420000000000001,-0.001,-0.026000000000000002,0.0
1670266997.319978,-10.123,-0.5680000000000001,3.065,0.1479,0.7120000000000001,0.1096,0.004,-0.01,0.017
1670266997.359978,-10.044,-0.651,3.032,0.1456,0.7124,0.1105,-0.009000000000000001,-0.001,0.029
1670266997.399978,-9.999,-0.526,3.028,0.1441,0.7132000000000001,0.109,0.002,-0.009000000000000001,0.016
1670266997.439978,-10.006,-0.5760000000000001,3.013,0.14400000000000002,0.7137,0.1096,0.012,-0.02,0.003
1670266997.4799778,-10.068,-0.535,2.967,0.1313,0.7065,0.1183,0.036000000000000004,-0.023,-0.02
1670266997.519978,-10.105,-0.5720000000000001,3.043,0.1384,0.7131000000000001,0.11120000000000001,0.012,-0.029,-0.017
1670266997.559978,-9.984,-0.7020000000000001,3.019,0.1459,0.7113,0.11170000000000001,-0.008,-0.05,0.013000000000000001
1670266997.599977,-10.043000000000001,-0.539,3.055,0.1439,0.7122,0.1107,-0.02,-0.05,0.008
1670266997.639977,-10.096,-0.671,3.0620000000000003,0.1451,0.7113,0.1115,-0.044,-0.025,0.03
1670266997.679977,-10.097,-0.727,3.108,0.14450000000000002,0.7130000000000001,0.11040000000000001,-0.147,-0.015,0.057
1670266997.719977,-10.015,-0.747,2.984,0.14500000000000002,0.7118,0.114,-0.153,-0.021,0.035
1670266997.759977,-9.995000000000001,-0.506,3.047,0.1462,0.7126,0.11170000000000001,-0.166,-0.01,0.03
1670266997.799977,-9.950000000000001,-0.515,3.103,0.1456,0.7112,0.108,-0.196,-0.004,0.003
1670266997.839977,-10.018,-0.775,2.977,0.1458,0.7144,0.0965,-0.217,-0.016,0.022
1670266997.879977,-9.965,-0.578,3.059,0.1448,0.7168,0.09140000000000001,-0.198,-0.008,0.027
1670266997.919977,-9.996,-0.505,3.008,0.1437,0.7147,0.1222,-0.154,0.005,0.0
1670266997.959977,-10.02,-0.529,3.045,0.1436,0.7171000000000001,0.1134,-0.092,-0.004,-0.006
1670266997.999977,-10.009,-0.64,2.9330000000000003,0.1466,0.7152000000000001,0.10930000000000001,-0.021,0.004,-0.032
1670266998.039977,-9.912,-0.8140000000000001,2.97,0.1471,0.7190000000000001,0.1078,-0.021,-0.019,-0.024
1670266998.079977,-10.065,-0.666,2.994,0.1449,0.7179,0.1042,-0.002,-0.029,-0.044
1670266998.119977,-10.126,-0.751,2.982,0.1466,0.7182000000000001,0.1029,-0.004,-0.023,-0.039
1670266998.159977,-10.035,-0.864,2.936,0.1453,0.7189,0.10700000000000001,0.002,-0.012,-0.003
1670266998.199977,-10.023,-0.655,3.048,0.14600000000000002,0.7171000000000001,0.1023,0.021,-0.018000000000000002,-0.002
1670266998.239977,-9.938,-0.845,3.001,0.1453,0.7188,0.10360000000000001,0.036000000000000004,-0.014,-0.008
1670266998.2799768,-9.977,-0.672,3.065,0.14600000000000002,0.7183,0.1024,0.051000000000000004,-0.024,-0.002
1670266998.319977,-9.938,-0.805,2.986,0.1461,0.7207,0.1041,0.059000000000000004,-0.062,-0.023
1670266998.359977,-9.985,-0.6930000000000001,3.149,0.14730000000000001,0.7185,0.1057,0.066,-0.096,-0.015
1670266998.399977,-10.091000000000001,-0.6970000000000001,3.224,0.14700000000000002,0.7171000000000001,0.1107,0.134,-0.026000000000000002,-0.02
1670266998.439977,-10.095,-0.64,3.168,0.1462,0.7149,0.10540000000000001,0.213,0.029,-0.063
1670266998.479977,-10.023,-0.594,3.101,0.1474,0.7202000000000001,0.10930000000000001,0.248,0.04,-0.07100000000000001
1670266998.5199769,-9.928,-0.9450000000000001,3.083,0.1427,0.7165,0.1105,0.23600000000000002,0.035,-0.041
1670266998.559977,-9.946,-1.274,2.872,0.1432,0.7156,0.1107,0.053,-0.003,0.043000000000000003
1670266998.599977,-10.023,-0.517,3.156,0.1466,0.7144,0.1091,0.016,-0.012,0.051000000000000004
1670266998.639977,-10.144,-0.544,3.08,0.14650000000000002,0.7167,0.1082,0.034,0.001,-0.01
1670266998.679977,-10.065,-0.617,3.036,0.1436,0.7154,0.1085,0.05,0.006,-0.004
1670266998.719976,-10.018,-0.649,3.075,0.1461,0.7139,0.10880000000000001,0.044,-0.015,0.029
1670266998.759976,-9.984,-0.633,3.0620000000000003,0.1434,0.7133,0.1107,0.062,-0.013000000000000001,0.038
1670266998.799976,-10.019,-0.644,3.079,0.1442,0.7153,0.1087,0.08,-0.003,-0.008
1670266998.839976,-10.056000000000001,-0.626,3.086,0.14400000000000002,0.7125,0.1085,0.09,-0.004,-0.004
1670266998.879976,-10.022,-0.632,3.121,0.1454,0.7132000000000001,0.10880000000000001,0.065,-0.022,0.004
1670266998.919976,-10.019,-0.592,3.117,0.1436,0.7143,0.11120000000000001,0.07,-0.022,-0.003
1670266998.959976,-10.071,-0.651,2.993,0.1457,0.7160000000000001,0.1101,0.041,-0.02,0.0
1670266998.999976,-10.036,-0.617,3.043,0.1451,0.7127,0.1119,0.009000000000000001,-0.017,0.004
1670266999.039976,-9.997,-0.589,3.044,0.1474,0.7134,0.1129,0.009000000000000001,-0.016,-0.005
1670266999.0799758,-9.994,-0.614,3.101,0.1447,0.7135,0.11120000000000001,0.018000000000000002,-0.016,-0.014
1670266999.119976,-10.082,-0.5660000000000001,3.051,0.1424,0.7138,0.1105,0.013000000000000001,-0.025,-0.003
1670266999.159976,-9.995000000000001,-0.605,3.109,0.1454,0.7140000000000001,0.1102,0.033,-0.029,-0.017
1670266999.199976,-10.027000000000001,-0.603,3.1710000000000003,0.1452,0.7128,0.10990000000000001,0.044,-0.025,-0.022
1670266999.239976,-10.073,-0.673,3.095,0.1443,0.7134,0.11270000000000001,0.015,-0.018000000000000002,-0.006
1670266999.279976,-10.066,-0.585,3.14,0.1432,0.7128,0.1109,0.011,-0.011,0.008
1670266999.3199759,-10.029,-0.63,3.118,0.1442,0.7108,0.10990000000000001,0.008,-0.003,0.002
1670266999.359976,-10.026,-0.614,3.0580000000000003,0.1427,0.7123,0.1145,0.013000000000000001,0.002,0.005
1670266999.399976,-10.026,-0.598,3.082,0.1439,0.7123,0.1091,0.008,0.005,-0.002
1670266999.439976,-10.031,-0.603,3.063,0.14600000000000002,0.7148,0.1107,0.015,-0.004,-0.006
1670266999.479976,-10.066,-0.643,3.016,0.1383,0.7110000000000001,0.11230000000000001,0.006,-0.007,-0.004
1670266999.519976,-10.037,-0.636,3.04,0.1451,0.7155,0.1115,0.008,-0.019,-0.01
1670266999.5599759,-10.022,-0.623,3.041,0.1373,0.7117,0.1154,0.01,-0.011,0.004
1670266999.599976,-10.045,-0.637,3.059,0.1409,0.7138,0.1129,0.01,-0.011,0.002
1670266999.639976,-10.026,-0.658,3.077,0.14730000000000001,0.7161000000000001,0.109,0.019,-0.018000000000000002,0.0
1670266999.679976,-9.969,-0.612,3.104,0.1437,0.7142000000000001,0.108,0.016,-0.028,-0.015
1670266999.719976,-10.022,-0.638,3.126,0.1416,0.7132000000000001,0.1188,0.028,-0.018000000000000002,-0.006
1670266999.759975,-10.168000000000001,-0.542,3.073,0.1429,0.7140000000000001,0.098,0.05,-0.008,0.009000000000000001
1670266999.799975,-10.061,-0.608,3.027,0.1408,0.7136,0.12200000000000001,0.04,-0.003,0.01
1670266999.839975,-10.001,-0.617,3.0500000000000003,0.1452,0.7140000000000001,0.1353,0.026000000000000002,-0.012,0.004
1670266999.879975,-10.074,-0.582,3.063,0.1452,0.7107,0.0925,0.022,-0.02,0.0
1670266999.919975,-10.015,-0.594,3.074,0.1452,0.7107,0.10990000000000001,0.02,-0.008,0.005
1670266999.959975,-9.992,-0.545,3.092,0.14650000000000002,0.7151000000000001,0.11040000000000001,0.011,-0.02,-0.007
1670266999.999975,-9.998,-0.609,3.107,0.1452,0.7115,0.11040000000000001,0.029,-0.026000000000000002,-0.003
1670267000.039975,-10.021,-0.581,3.124,0.1461,0.7081000000000001,0.1179,0.034,-0.01,-0.008
1670267000.079975,-10.046,-0.609,3.0660000000000003,0.1467,0.7113,0.10880000000000001,0.04,-0.002,-0.012
1670267000.1199749,-9.997,-0.613,3.141,0.14500000000000002,0.7115,0.112,0.017,0.0,0.01
1670267000.159975,-10.056000000000001,-0.578,3.0580000000000003,0.1481,0.7126,0.1095,0.012,-0.001,0.012
1670267000.199975,-10.053,-0.5750000000000001,2.969,0.1437,0.7137,0.10880000000000001,0.021,0.004,0.002
1670267000.239975,-10.01,-0.603,3.024,0.1432,0.7122,0.111,0.015,-0.001,-0.008
1670267000.279975,-10.004,-0.642,3.019,0.1461,0.7104,0.1096,0.006,-0.012,-0.002
1670267000.319975,-10.032,-0.5740000000000001,3.065,0.1468,0.7116,0.10940000000000001,0.016,-0.015,-0.012
1670267000.3599749,-10.042,-0.624,3.033,0.1443,0.7135,0.11270000000000001,0.013000000000000001,-0.013000000000000001,-0.005
1670267000.399975,-10.0,-0.493,3.109,0.1441,0.7117,0.11130000000000001,0.058,0.0,-0.027
1670267000.439975,-9.97,-0.5680000000000001,3.036,0.1468,0.7090000000000001,0.1106,0.10300000000000001,0.014,-0.056
1670267000.479975,-10.03,-0.244,3.189,0.14200000000000002,0.7118,0.10990000000000001,0.224,0.017,-0.131
1670267000.519975,-10.163,-0.548,3.097,0.1434,0.7102,0.1107,0.313,0.065,-0.192
1670267000.559975,-10.058,-0.976,2.946,0.14200000000000002,0.7118,0.1144,0.211,0.06,-0.113
1670267000.5999749,-10.003,-0.79,2.928,0.14150000000000001,0.7132000000000001,0.1139,0.081,0.026000000000000002,-0.025
1670267000.639975,-9.991,-0.97,2.8040000000000003,0.1452,0.7144,0.1115,-0.021,-0.024,0.054
1670267000.679975,-10.156,-0.65,2.967,0.1456,0.7135,0.1134,-0.053,-0.004,0.015
1670267000.719975,-10.14,-0.496,3.043,0.1423,0.7151000000000001,0.1115,-0.008,0.005,-0.019
1670267000.759975,-10.034,-0.657,3.049,0.14200000000000002,0.7149,0.1135,0.001,-0.014,-0.007
1670267000.799974,-9.982000000000001,-0.675,2.99,0.1441,0.7145,0.113,-0.016,-0.069,0.01
1670267000.839974,-10.062,-0.642,3.039,0.14350000000000002,0.7113,0.112,0.008,-0.052000000000000005,-0.005
1670267000.879974,-10.108,-0.72,3.013,0.1428,0.7141000000000001,0.11420000000000001,0.009000000000000001,-0.025,0.004
1670267000.9199739,-9.944,-0.6880000000000001,3.094,0.1443,0.7140000000000001,0.11270000000000001,-0.001,-0.026000000000000002,0.021
1670267000.959974,-10.017,-0.684,3.064,0.14400000000000002,0.7145,0.1086,0.001,-0.032,0.015
1670267000.999974,-10.086,-0.615,3.0700000000000003,0.1429,0.7152000000000001,0.111,0.001,-0.017,0.017
1670267001.039974,-10.01,-0.642,3.0700000000000003,0.14200000000000002,0.7130000000000001,0.11370000000000001,0.011,-0.002,-0.003
1670267001.079974,-10.014,-0.724,2.973,0.1443,0.7153,0.1134,0.0,-0.011,-0.004
1670267001.119974,-10.042,-0.642,3.056,0.1437,0.7155,0.11420000000000001,-0.005,-0.018000000000000002,0.004
1670267001.1599739,-10.01,-0.668,3.088,0.1418,0.7142000000000001,0.1129,-0.001,-0.021,0.005
1670267001.199974,-10.0,-0.632,3.095,0.1421,0.7138,0.1126,0.015,-0.027,-0.007
1670267001.239974,-10.058,-0.647,3.045,0.13670000000000002,0.7137,0.1102,0.033,-0.018000000000000002,-0.014
1670267001.279974,-10.047,-0.7010000000000001,3.072,0.1443,0.7160000000000001,0.11380000000000001,0.034,-0.011,-0.004
1670267001.319974,-10.052,-0.665,3.0540000000000003,0.1378,0.7110000000000001,0.12200000000000001,0.028,-0.019,-0.004
1670267001.359974,-10.072000000000001,-0.668,3.012,0.1424,0.7110000000000001,0.1131,0.022,-0.015,0.006
1670267001.3999739,-10.082,-0.638,3.085,0.1448,0.7145,0.1107,0.027,-0.008,0.003
1670267001.439974,-10.092,-0.55,3.036,0.14250000000000002,0.7143,0.1149,0.055,-0.001,-0.018000000000000002
1670267001.479974,-9.962,-0.653,3.04,0.14400000000000002,0.7114,0.11180000000000001,0.037,-0.018000000000000002,0.0
1670267001.519974,-9.994,-0.665,3.027,0.14150000000000001,0.7137,0.11180000000000001,0.02,-0.041,-0.013000000000000001
1670267001.559974,-10.089,-0.641,3.0620000000000003,0.1295,0.7108,0.1062,0.017,-0.03,-0.021
1670267001.599974,-10.004,-0.6910000000000001,3.098,0.1431,0.7132000000000001,0.09280000000000001,-0.011,-0.034,0.008
1670267001.6399739,-9.994,-0.674,3.118,0.14120000000000002,0.7108,0.1114,-0.001,-0.033,0.01
1670267001.679974,-10.014,-0.59,3.112,0.1416,0.7124,0.1121,0.014,-0.025,-0.011
1670267001.719974,-10.023,-0.639,3.1,0.1422,0.7126,0.12490000000000001,0.034,-0.007,-0.016
1670267001.759974,-9.991,-0.672,3.0460000000000003,0.1429,0.7124,0.1148,0.032,-0.004,-0.016
1670267001.799974,-10.035,-0.665,3.0540000000000003,0.14100000000000001,0.7133,0.1143,0.017,-0.005,-0.001
1670267001.839973,-10.016,-0.657,3.007,0.14550000000000002,0.7117,0.1135,0.015,-0.012,0.001
1670267001.879973,-9.995000000000001,-0.653,3.089,0.14650000000000002,0.7144,0.1143,0.017,-0.008,0.0
1670267001.919973,-10.056000000000001,-0.646,3.041,0.1401,0.7083,0.11570000000000001,0.007,-0.008,-0.002
1670267001.9599729,-9.997,-0.664,3.077,0.1418,0.7132000000000001,0.11230000000000001,-0.001,-0.013000000000000001,0.001
1670267001.999973,-10.029,-0.645,3.056,0.1426,0.7144,0.1143,0.003,-0.015,0.003
1670267002.039973,-9.997,-0.623,3.0700000000000003,0.1437,0.7129000000000001,0.1124,0.014,-0.018000000000000002,0.002
1670267002.079973,-10.023,-0.669,3.083,0.1444,0.7135,0.1115,0.009000000000000001,-0.013000000000000001,0.0
1670267002.119973,-10.047,-0.677,3.094,0.1451,0.7131000000000001,0.1149,0.011,-0.011,-0.003
1670267002.159973,-10.043000000000001,-0.668,3.1390000000000002,0.14100000000000001,0.7138,0.1129,0.005,-0.007,0.003
1670267002.1999729,-10.011000000000001,-0.664,3.1310000000000002,0.14150000000000001,0.7150000000000001,0.11330000000000001,0.003,-0.005,-0.001
1670267002.239973,-10.091000000000001,-0.638,3.077,0.1431,0.7132000000000001,0.11370000000000001,0.018000000000000002,0.0,0.005
1670267002.279973,-10.072000000000001,-0.628,3.0420000000000003,0.14100000000000001,0.7141000000000001,0.11270000000000001,0.02,0.012,0.016
1670267002.319973,-9.995000000000001,-0.625,2.956,0.1421,0.7153,0.11320000000000001,0.021,0.007,0.01
1670267002.359973,-9.985,-0.635,3.036,0.14400000000000002,0.7120000000000001,0.1111,0.04,-0.011,-0.01
1670267002.399973,-10.02,-0.662,3.059,0.1422,0.7130000000000001,0.11380000000000001,0.029,-0.02,-0.018000000000000002
1670267002.4399729,-10.075000000000001,-0.664,2.995,0.1431,0.7137,0.115,0.027,-0.017,-0.017
1670267002.479973,-9.974,-0.671,3.032,0.1451,0.7154,0.1101,0.006,-0.022,-0.009000000000000001
1670267002.519973,-10.026,-0.675,3.0700000000000003,0.1424,0.7131000000000001,0.1139,0.005,-0.023,-0.006
1670267002.559973,-10.083,-0.646,3.029,0.14500000000000002,0.7131000000000001,0.1121,0.011,-0.018000000000000002,-0.005
1670267002.599973,-10.01,-0.656,3.076,0.1421,0.7132000000000001,0.113,0.006,-0.019,-0.001
1670267002.639973,-10.026,-0.638,3.059,0.14350000000000002,0.7134,0.11120000000000001,0.001,-0.014,0.005
1670267002.679973,-10.062,-0.647,3.056,0.1451,0.7146,0.11460000000000001,0.012,-0.022,-0.008
1670267002.719973,-10.039,-0.663,3.009,0.1422,0.7150000000000001,0.11230000000000001,0.0,-0.02,0.005
1670267002.759973,-10.012,-0.652,3.041,0.1438,0.7137,0.1105,-0.004,-0.016,0.003
1670267002.799973,-9.978,-0.656,3.057,0.1423,0.7138,0.1131,0.005,-0.022,-0.014
1670267002.839973,-10.036,-0.639,3.065,0.14120000000000002,0.7138,0.11380000000000001,0.012,-0.013000000000000001,-0.004
1670267002.879972,-9.971,-0.669,3.064,0.1385,0.7151000000000001,0.1136,0.02,-0.022,-0.01
1670267002.919972,-10.043000000000001,-0.672,3.132,0.1426,0.7149,0.1129,0.026000000000000002,-0.016,-0.018000000000000002
1670267002.959972,-10.043000000000001,-0.704,3.108,0.1418,0.7134,0.1114,0.016,-0.016,-0.004
1670267002.9999719,-9.941,-0.669,3.0580000000000003,0.14500000000000002,0.7126,0.1109,0.022,-0.012,0.005
1670267003.039972,-9.991,-0.657,3.146,0.1411,0.7135,0.11460000000000001,0.018000000000000002,-0.004,0.002
1670267003.079972,-10.109,-0.719,3.06,0.1395,0.7131000000000001,0.1155,0.012,0.004,0.01
1670267003.119972,-10.037,-0.649,3.029,0.1448,0.7160000000000001,0.1129,0.013000000000000001,0.0,-0.006
1670267003.159972,-9.996,-0.626,3.071,0.14150000000000001,0.7139,0.11420000000000001,0.022,-0.02,-0.019
1670267003.199972,-9.977,-0.6880000000000001,3.012,0.1424,0.7130000000000001,0.113,0.02,-0.032,-0.018000000000000002
1670267003.2399719,-10.101,-0.66,3.077,0.14500000000000002,0.7160000000000001,0.11230000000000001,0.016,-0.031,-0.026000000000000002
1670267003.279972,-10.051,-0.774,3.072,0.1424,0.7133,0.11370000000000001,-0.023,-0.039,-0.011
1670267003.319972,-10.016,-0.755,3.067,0.1303,0.7122,0.12250000000000001,-0.07200000000000001,-0.044,0.034
1670267003.359972,-10.07,-0.685,3.194,0.14500000000000002,0.7144,0.1131,-0.059000000000000004,-0.013000000000000001,0.05
1670267003.399972,-10.145,-0.852,3.128,0.1416,0.7144,0.1144,-0.16,0.001,0.098
1670267003.439972,-9.942,-0.777,2.948,0.14100000000000001,0.7115,0.12250000000000001,-0.127,-0.028,0.07200000000000001
1670267003.479972,-10.02,-0.402,3.115,0.1453,0.7136,0.1148,-0.123,-0.008,0.044
1670267003.519972,-10.031,-0.448,3.129,0.13920000000000002,0.7108,0.1125,-0.135,-0.021,0.06
1670267003.559972,-10.021,-0.849,2.991,0.1456,0.7181000000000001,0.1267,-0.155,-0.018000000000000002,0.037
1670267003.599972,-9.948,-1.1280000000000001,2.852,0.1432,0.7179,0.0952,-0.352,-0.055,0.081
1670267003.639972,-10.022,-0.918,3.004,0.1438,0.7175,0.1037,-0.47500000000000003,-0.092,0.116
1670267003.679972,-10.075000000000001,-0.168,3.209,0.1476,0.7162000000000001,0.1019,-0.494,-0.11900000000000001,0.128
1670267003.719972,-10.055,-0.687,3.061,0.1462,0.7190000000000001,0.09920000000000001,-0.427,-0.085,0.068
1670267003.759972,-10.1,-0.139,3.286,0.14450000000000002,0.7200000000000001,0.1052,-0.213,-0.042,-0.018000000000000002
1670267003.799972,-10.038,-0.729,3.055,0.1468,0.7191000000000001,0.09970000000000001,-0.07,0.022,-0.105
1670267003.839972,-10.037,-0.81,3.162,0.1451,0.7213,0.10070000000000001,0.021,0.008,-0.075
1670267003.879972,-10.07,-1.043,3.101,0.1482,0.7231000000000001,0.09680000000000001,0.047,0.01,-0.047
1670267003.919971,-9.997,-0.803,3.1470000000000002,0.1459,0.7230000000000001,0.0951,0.05,0.012,-0.014
1670267003.959971,-9.934000000000001,-1.075,2.971,0.1466,0.7242000000000001,0.09860000000000001,0.026000000000000002,0.012,0.008
1670267003.999971,-9.921,-0.8130000000000001,3.0260000000000002,0.1474,0.7221000000000001,0.0964,0.047,-0.01,0.023
1670267004.0399709,-10.068,-0.909,2.999,0.1474,0.7218,0.0978,0.074,-0.009000000000000001,-0.039
1670267004.079971,-10.025,-0.933,3.036,0.1468,0.7193,0.098,0.07100000000000001,0.001,-0.012
1670267004.119971,-9.943,-0.835,3.003,0.14550000000000002,0.7216,0.0976,0.089,0.014,-0.011
1670267004.159971,-9.93,-0.871,3.007,0.1456,0.7226,0.0979,0.094,-0.015,0.0
1670267004.199971,-9.895,-0.8300000000000001,3.015,0.14700000000000002,0.7215,0.09570000000000001,0.084,-0.041,0.006
1670267004.239971,-10.072000000000001,-0.8290000000000001,3.112,0.1457,0.7217,0.1004,0.09,-0.061,0.007
1670267004.279971,-10.057,-0.8220000000000001,3.075,0.1454,0.7207,0.0993,0.12,-0.03,0.014
1670267004.319971,-10.05,-0.668,3.104,0.1451,0.7189,0.1009,0.132,-0.018000000000000002,0.023
1670267004.359971,-9.925,-0.751,3.091,0.1437,0.7164,0.1024,0.132,-0.03,0.026000000000000002
1670267004.399971,-9.947000000000001,-0.598,3.133,0.14400000000000002,0.7158,0.1003,0.166,-0.052000000000000005,0.021
1670267004.439971,-10.077,-0.759,3.09,0.1454,0.7171000000000001,0.1033,0.195,-0.009000000000000001,-0.03
1670267004.479971,-10.019,-0.6930000000000001,3.205,0.1453,0.7148,0.1067,0.17,0.001,-0.062
1670267004.519971,-9.998,-0.778,3.118,0.1449,0.7148,0.10350000000000001,0.124,-0.002,-0.031
1670267004.559971,-10.004,-0.769,3.136,0.1448,0.7182000000000001,0.1067,0.08700000000000001,0.004,-0.009000000000000001
1670267004.599971,-10.016,-0.729,3.103,0.14450000000000002,0.7166,0.1073,0.055,-0.006,-0.009000000000000001
1670267004.639971,-9.905,-0.725,3.119,0.1429,0.7145,0.1081,0.039,-0.017,-0.011
1670267004.679971,-10.031,-0.6960000000000001,3.192,0.1426,0.7135,0.10640000000000001,0.024,-0.008,0.001
1670267004.719971,-10.114,-0.686,3.071,0.1452,0.7183,0.10600000000000001,0.03,0.005,0.01
1670267004.759971,-10.041,-0.653,3.081,0.1453,0.7134,0.1044,0.036000000000000004,0.005,0.011
1670267004.799971,-9.968,-0.63,3.061,0.1453,0.7161000000000001,0.1052,0.056,-0.011,0.002
1670267004.839971,-9.983,-0.656,3.109,0.1434,0.7140000000000001,0.10790000000000001,0.079,-0.014,0.0
1670267004.879971,-10.044,-0.553,3.101,0.1449,0.7157,0.1058,0.149,0.012,-0.038
1670267004.919971,-9.994,-0.458,3.235,0.1448,0.7146,0.1121,0.225,0.024,-0.126
1670267004.95997,-9.916,-0.733,3.1710000000000003,0.1451,0.7175,0.10930000000000001,0.223,0.026000000000000002,-0.10300000000000001
1670267004.99997,-9.982000000000001,-0.901,3.1,0.1452,0.7152000000000001,0.10930000000000001,0.162,0.012,-0.052000000000000005
1670267005.03997,-9.996,-0.847,3.09,0.14450000000000002,0.7154,0.1097,0.08600000000000001,-0.001,-0.015
1670267005.07997,-9.956,-0.783,3.104,0.1318,0.7106,0.1187,0.019,-0.01,0.023
1670267005.11997,-9.938,-0.6910000000000001,3.1,0.1416,0.7126,0.1126,0.003,-0.01,0.031
1670267005.15997,-9.984,-0.618,3.104,0.1454,0.7143,0.10990000000000001,0.023,0.001,0.005
1670267005.19997,-10.064,-0.644,3.044,0.14550000000000002,0.7148,0.1096,0.013000000000000001,0.005,0.016
1670267005.23997,-10.057,-0.657,3.101,0.1436,0.7123,0.11040000000000001,0.012,0.007,0.022
1670267005.27997,-10.023,-0.58,3.082,0.1431,0.7163,0.10690000000000001,0.005,0.016,0.0
1670267005.31997,-10.009,-0.682,3.0340000000000003,0.14300000000000002,0.7123,0.11460000000000001,0.012,0.003,-0.011
1670267005.35997,-10.013,-0.608,3.007,0.1459,0.7144,0.11040000000000001,0.004,0.0,0.009000000000000001
1670267005.39997,-9.931000000000001,-0.657,3.061,0.1431,0.7147,0.09000000000000001,0.012,-0.013000000000000001,0.005
1670267005.43997,-10.171,-0.655,3.032,0.14100000000000001,0.7140000000000001,0.0916,-0.001,-0.006,0.007
1670267005.47997,-10.081,-0.611,3.047,0.14450000000000002,0.7179,0.10740000000000001,0.011,0.01,0.008
1670267005.51997,-10.018,-0.603,3.047,0.1456,0.7145,0.10830000000000001,0.032,0.029,-0.004
1670267005.55997,-9.998,-0.61,2.992,0.1456,0.7144,0.1096,0.045,0.023,-0.01
1670267005.59997,-10.044,-0.665,3.0380000000000003,0.14650000000000002,0.7149,0.1135,0.036000000000000004,0.007,-0.001
1670267005.63997,-10.134,-0.642,3.0100000000000002,0.1438,0.7121000000000001,0.1058,0.008,0.006,0.033
1670267005.67997,-10.091000000000001,-0.62,2.965,0.1446,0.7140000000000001,0.10650000000000001,0.0,0.007,0.012
1670267005.71997,-10.029,-0.553,2.986,0.14930000000000002,0.7122,0.10840000000000001,0.005,0.0,0.008
1670267005.75997,-10.049,-0.624,3.005,0.14550000000000002,0.7130000000000001,0.1034,0.013000000000000001,0.003,-0.006
1670267005.79997,-10.092,-0.619,2.983,0.14830000000000002,0.7132000000000001,0.1062,0.006,0.0,0.003
1670267005.83997,-10.034,-0.602,2.996,0.1457,0.7145,0.1057,0.017,-0.006,-0.003
1670267005.87997,-10.085,-0.5680000000000001,2.953,0.1452,0.7140000000000001,0.1072,0.028,-0.004,-0.016
1670267005.91997,-10.107000000000001,-0.626,2.9330000000000003,0.1487,0.7120000000000001,0.1057,0.031,0.001,-0.003
1670267005.95997,-10.047,-0.669,2.969,0.14700000000000002,0.7115,0.10350000000000001,0.01,0.0,0.01
1670267005.999969,-10.068,-0.591,3.008,0.1459,0.7153,0.1043,0.003,0.0,0.013000000000000001
1670267006.039969,-10.022,-0.611,2.982,0.149,0.7141000000000001,0.10550000000000001,0.011,-0.003,-0.003
1670267006.079969,-10.046,-0.58,2.983,0.14780000000000001,0.7153,0.10160000000000001,0.035,-0.013000000000000001,-0.008
1670267006.119969,-10.016,-0.648,2.958,0.1461,0.7154,0.1057,0.032,-0.022,-0.004
1670267006.159969,-10.048,-0.587,2.983,0.149,0.7140000000000001,0.10590000000000001,0.036000000000000004,-0.025,-0.013000000000000001
1670267006.199969,-10.034,-0.494,3.1,0.1472,0.7119000000000001,0.1097,0.098,-0.013000000000000001,-0.04
1670267006.239969,-10.065,-0.439,3.0420000000000003,0.1448,0.7159,0.1062,0.197,0.0,-0.115
1670267006.279969,-10.109,-0.556,2.956,0.1471,0.7144,0.10840000000000001,0.27,0.049,-0.18
1670267006.319969,-10.143,-0.675,2.886,0.1448,0.7169,0.10840000000000001,0.256,0.061,-0.152
1670267006.359969,-10.077,-0.8280000000000001,2.8810000000000002,0.14600000000000002,0.7127,0.1086,0.182,0.032,-0.091
1670267006.399969,-10.022,-0.86,2.8890000000000002,0.14550000000000002,0.7167,0.1085,0.084,-0.004,-0.051000000000000004
1670267006.439969,-9.981,-0.8180000000000001,2.887,0.1434,0.7141000000000001,0.1092,0.033,-0.04,-0.029
1670267006.479969,-10.061,-0.811,2.8810000000000002,0.1423,0.7165,0.1092,-0.002,-0.043000000000000003,-0.019
1670267006.519969,-10.077,-0.786,2.903,0.1459,0.7165,0.10980000000000001,-0.034,-0.051000000000000004,0.016
1670267006.559969,-10.125,-0.744,2.92,0.14200000000000002,0.7145,0.10840000000000001,-0.04,-0.05,0.039
1670267006.599969,-10.013,-0.739,3.032,0.14070000000000002,0.7167,0.1116,-0.057,-0.042,0.044
1670267006.639969,-10.08,-0.792,2.958,0.1426,0.7165,0.10880000000000001,-0.091,-0.04,0.063
1670267006.679969,-10.067,-0.721,3.057,0.14550000000000002,0.7144,0.1087,-0.099,-0.029,0.073
1670267006.719969,-10.053,-0.618,3.043,0.14350000000000002,0.7168,0.1062,-0.084,-0.007,0.066
1670267006.759969,-10.077,-0.671,2.995,0.1463,0.7170000000000001,0.1076,-0.08600000000000001,-0.001,0.075
1670267006.799969,-10.019,-0.668,3.04,0.1452,0.7137,0.1073,-0.064,-0.009000000000000001,0.076
1670267006.839969,-10.081,-0.637,2.967,0.1414,0.7108,0.1143,-0.046,0.007,0.026000000000000002
1670267006.879969,-10.028,-0.5750000000000001,3.059,0.1444,0.7137,0.1044,-0.034,0.007,0.011
1670267006.9199688,-10.058,-0.653,3.001,0.1463,0.7141000000000001,0.1046,0.002,-0.001,0.0
1670267006.959969,-10.102,-0.579,2.957,0.1457,0.7135,0.1056,0.034,0.006,-0.015
1670267006.999969,-10.09,-0.662,2.945,0.1459,0.7157,0.1046,0.033,0.007,-0.01
1670267007.039968,-10.064,-0.668,2.9330000000000003,0.1457,0.7146,0.10260000000000001,0.028,0.016,0.0
1670267007.079968,-10.098,-0.654,2.968,0.1446,0.7143,0.1051,0.034,0.01,-0.004
1670267007.119968,-10.040000000000001,-0.626,2.962,0.1452,0.7143,0.1041,0.054,0.01,-0.016
1670267007.159968,-10.055,-0.669,2.953,0.1494,0.7125,0.1038,0.042,0.009000000000000001,0.006
1670267007.199968,-10.058,-0.677,2.948,0.1446,0.7141000000000001,0.1008,0.033,0.015,0.014
1670267007.239968,-10.101,-0.621,2.864,0.1441,0.7126,0.11760000000000001,0.028,0.015,0.019
1670267007.279968,-10.054,-0.645,2.899,0.1421,0.7139,0.08170000000000001,0.017,0.006,0.013000000000000001
1670267007.319968,-10.122,-0.5690000000000001,2.948,0.1448,0.7123,0.11270000000000001,0.012,-0.001,0.014
1670267007.359968,-10.069,-0.603,2.892,0.1401,0.7116,0.10350000000000001,0.015,-0.006,0.01
1670267007.399968,-10.068,-0.5710000000000001,2.907,0.1479,0.7110000000000001,0.10210000000000001,0.021,0.0,0.001
1670267007.439968,-10.129,-0.611,2.878,0.1492,0.7122,0.10210000000000001,0.024,0.01,-0.007
1670267007.479968,-10.112,-0.583,2.879,0.1449,0.7135,0.1038,0.025,0.018000000000000002,-0.008
1670267007.519968,-10.104000000000001,-0.596,2.8850000000000002,0.14600000000000002,0.7115,0.0994,0.015,0.01,-0.001
1670267007.559968,-10.09,-0.577,2.902,0.1461,0.7130000000000001,0.09970000000000001,0.016,0.014,-0.002
1670267007.599968,-10.088000000000001,-0.675,2.806,0.149,0.7123,0.1004,0.021,0.005,-0.004
1670267007.639968,-10.122,-0.648,2.821,0.14650000000000002,0.7107,0.10310000000000001,0.0,-0.001,0.013000000000000001
1670267007.679968,-10.13,-0.641,2.816,0.1482,0.7151000000000001,0.09860000000000001,-0.018000000000000002,-0.003,0.021
1670267007.719968,-10.132,-0.558,2.858,0.1482,0.7126,0.10200000000000001,-0.003,0.001,-0.006
1670267007.759968,-10.101,-0.605,2.809,0.14730000000000001,0.7133,0.1008,0.016,-0.003,-0.014
1670267007.799968,-10.126,-0.601,2.839,0.14850000000000002,0.7118,0.1013,0.019,-0.004,-0.005
1670267007.839968,-10.085,-0.587,2.87,0.1479,0.7126,0.1022,0.029,-0.005,0.0
1670267007.879968,-10.149000000000001,-0.626,2.797,0.1468,0.7146,0.1028,0.023,-0.01,-0.001
1670267007.919968,-10.159,-0.65,2.825,0.1477,0.7114,0.101,0.022,-0.003,-0.001
1670267007.9599679,-10.122,-0.628,2.818,0.15030000000000002,0.7137,0.1027,0.003,-0.003,0.003
1670267007.999968,-10.082,-0.64,2.849,0.1484,0.7117,0.1024,0.003,-0.007,0.011
1670267008.039968,-10.193,-0.532,2.845,0.1462,0.7149,0.1015,0.007,-0.003,0.005
1670267008.079967,-10.15,-0.601,2.766,0.1489,0.7155,0.1015,0.021,0.007,0.003
1670267008.119967,-10.079,-0.61,2.722,0.1484,0.7123,0.1004,0.008,0.0,0.013000000000000001
1670267008.159967,-10.094,-0.532,2.7880000000000003,0.1449,0.7111000000000001,0.10010000000000001,0.027,-0.01,0.0
1670267008.199967,-10.139,-0.622,2.8000000000000003,0.1494,0.7123,0.10160000000000001,0.039,-0.01,-0.008
1670267008.239967,-10.162,-0.622,2.782,0.1496,0.7135,0.1008,0.029,-0.018000000000000002,-0.01
1670267008.279967,-10.103,-0.6950000000000001,2.828,0.1481,0.7154,0.0993,0.03,-0.031,-0.02
1670267008.319967,-10.091000000000001,-0.641,2.843,0.1492,0.7140000000000001,0.0981,0.014,-0.034,-0.008
1670267008.359967,-10.147,-0.65,2.794,0.14930000000000002,0.7157,0.10250000000000001,0.002,-0.023,0.007
1670267008.399967,-10.125,-0.499,2.86,0.1437,0.7119000000000001,0.1012,0.024,-0.005,-0.008
1670267008.439967,-10.149000000000001,-0.615,2.819,0.1535,0.7133,0.10060000000000001,0.034,0.002,-0.012
1670267008.479967,-10.108,-0.677,2.7960000000000003,0.1468,0.7133,0.0985,0.011,0.0,0.013000000000000001
1670267008.519967,-10.144,-0.56,2.831,0.14830000000000002,0.7127,0.0993,0.004,-0.007,0.013000000000000001
1670267008.559967,-10.125,-0.584,2.7920000000000003,0.1468,0.7130000000000001,0.10020000000000001,0.011,-0.021,-0.001
1670267008.599967,-10.143,-0.622,2.801,0.1474,0.7128,0.10350000000000001,-0.013000000000000001,-0.021,0.008
1670267008.639967,-10.120000000000001,-0.636,2.759,0.1496,0.7118,0.1041,-0.039,-0.029,0.014
1670267008.679967,-10.146,-0.5730000000000001,2.758,0.14880000000000002,0.7106,0.10070000000000001,-0.034,-0.027,0.003
1670267008.719967,-10.154,-0.445,2.801,0.149,0.7129000000000001,0.09860000000000001,0.005,-0.025,-0.027
1670267008.7599669,-10.18,-0.627,2.774,0.1492,0.7126,0.0994,0.01,-0.031,-0.023
1670267008.799967,-10.053,-0.585,2.867,0.1452,0.7168,0.1013,0.011,-0.044,-0.026000000000000002
1670267008.839967,-10.158,-0.658,2.849,0.1466,0.7148,0.09920000000000001,0.005,-0.03,-0.018000000000000002
1670267008.879967,-10.216000000000001,-0.588,2.824,0.149,0.7166,0.10010000000000001,0.009000000000000001,-0.024,-0.007
1670267008.919967,-10.109,-0.648,2.829,0.1452,0.7132000000000001,0.10540000000000001,0.013000000000000001,-0.019,-0.01
1670267008.959967,-10.055,-0.638,2.785,0.1476,0.7170000000000001,0.1004,0.006,-0.026000000000000002,-0.01
1670267008.9999669,-10.082,-0.778,2.807,0.1462,0.7155,0.1008,-0.024,-0.043000000000000003,-0.01
1670267009.039967,-10.235,-0.629,2.9210000000000003,0.1446,0.7134,0.11370000000000001,-0.045,-0.028,-0.014
1670267009.079967,-10.132,-0.771,2.8000000000000003,0.1436,0.7148,0.1259,-0.114,-0.04,0.03
1670267009.119967,-10.003,-0.729,2.821,0.1437,0.7120000000000001,0.08610000000000001,-0.152,-0.044,0.07
1670267009.159967,-10.107000000000001,-0.505,2.822,0.1481,0.7152000000000001,0.09920000000000001,-0.133,-0.049,0.049
1670267009.199966,-10.146,-0.614,2.896,0.14850000000000002,0.7132000000000001,0.09770000000000001,-0.124,-0.033,0.027
1670267009.239966,-9.968,-0.464,2.8930000000000002,0.1481,0.7113,0.09620000000000001,-0.14100000000000001,-0.041,0.036000000000000004
1670267009.279966,-10.177,-0.683,2.989,0.1481,0.7168,0.097,-0.117,-0.052000000000000005,0.009000000000000001
1670267009.319966,-10.161,-0.538,2.957,0.1471,0.7171000000000001,0.0975,-0.091,-0.038,0.017
1670267009.359966,-10.006,-1.0090000000000001,2.825,0.14780000000000001,0.7148,0.0966,-0.13,-0.027,0.036000000000000004
1670267009.399966,-10.085,-0.539,2.992,0.1482,0.7175,0.0974,-0.139,-0.016,0.039
1670267009.439966,-9.9,-0.85,2.806,0.14800000000000002,0.7162000000000001,0.09570000000000001,-0.221,-0.01,-0.006
1670267009.479966,-10.05,-0.487,2.916,0.1486,0.7184,0.094,-0.16,-0.04,0.0
1670267009.519966,-10.023,-0.868,2.7840000000000003,0.1504,0.7176,0.09430000000000001,-0.194,-0.046,-0.009000000000000001
1670267009.5599658,-10.095,-0.5710000000000001,3.0060000000000002,0.14800000000000002,0.7171000000000001,0.0915,-0.112,-0.042,-0.024
1670267009.599966,-10.079,-0.921,2.934,0.1487,0.7217,0.0915,-0.116,-0.05,-0.037
1670267009.639966,-10.108,-0.632,3.0260000000000002,0.1514,0.7196,0.0941,-0.067,-0.035,-0.016
1670267009.679966,-10.102,-0.766,2.978,0.1496,0.7212000000000001,0.0901,-0.032,-0.007,-0.029
1670267009.719966,-10.024000000000001,-0.872,2.894,0.1476,0.7224,0.0911,-0.021,-0.004,-0.019
1670267009.759966,-9.961,-0.739,2.939,0.1484,0.7182000000000001,0.093,0.004,-0.007,-0.012
1670267009.7999659,-10.057,-0.833,2.97,0.1462,0.7223,0.0888,0.028,-0.012,-0.027
1670267009.839966,-10.092,-0.843,2.94,0.1487,0.7198,0.0936,0.053,-0.013000000000000001,-0.002
1670267009.879966,-10.114,-0.874,3.0260000000000002,0.1496,0.7209,0.0917,0.066,-0.01,-0.013000000000000001
1670267009.919966,-10.038,-0.754,2.988,0.1434,0.7181000000000001,0.0902,0.063,-0.02,0.0
1670267009.959966,-10.034,-0.778,2.927,0.1482,0.7202000000000001,0.0927,0.081,-0.02,-0.01
1670267009.999966,-10.021,-0.809,2.949,0.149,0.7217,0.09190000000000001,0.085,-0.037,0.004
1670267010.0399659,-10.125,-0.853,2.876,0.14600000000000002,0.7181000000000001,0.09280000000000001,0.091,-0.051000000000000004,-0.01
1670267010.079966,-10.126,-0.8220000000000001,2.932,0.14650000000000002,0.7158,0.0936,0.08700000000000001,-0.037,-0.019
1670267010.119966,-10.061,-0.906,2.924,0.14700000000000002,0.7191000000000001,0.09280000000000001,0.037,-0.034,0.0
1670267010.159966,-10.034,-0.733,2.974,0.1484,0.7191000000000001,0.0908,0.033,-0.035,0.008
1670267010.199966,-10.059000000000001,-0.717,2.985,0.14700000000000002,0.7177,0.0955,0.068,-0.024,-0.02
1670267010.239965,-9.955,-0.724,2.98,0.1452,0.7207,0.0961,0.082,-0.053,-0.02
1670267010.279965,-10.026,-0.749,3.012,0.1469,0.7181000000000001,0.097,0.076,-0.052000000000000005,0.0
1670267010.319965,-10.028,-0.803,3.074,0.1481,0.7210000000000001,0.0965,0.077,-0.04,-0.007
1670267010.3599648,-10.071,-0.679,3.107,0.1463,0.7201000000000001,0.0993,0.134,0.0,-0.045
1670267010.399965,-10.009,-0.785,3.133,0.1454,0.7197,0.0959,0.156,0.003,-0.065
1670267010.439965,-10.046,-0.8140000000000001,3.0180000000000002,0.14600000000000002,0.7184,0.1027,0.148,0.012,-0.052000000000000005
1670267010.479965,-10.062,-0.8190000000000001,3.0540000000000003,0.1462,0.7188,0.1004,0.125,0.011,-0.036000000000000004
1670267010.519965,-10.08,-0.768,3.003,0.14850000000000002,0.7179,0.0975,0.1,0.012,-0.033
1670267010.559965,-10.033,-0.867,2.9130000000000003,0.14830000000000002,0.7190000000000001,0.10260000000000001,0.06,-0.008,-0.016
1670267010.5999649,-9.94,-0.796,3.0500000000000003,0.14400000000000002,0.7189,0.1015,0.036000000000000004,-0.024,-0.01
1670267010.639965,-9.989,-0.762,3.065,0.1448,0.7182000000000001,0.1009,0.045,-0.024,-0.016
1670267010.679965,-10.009,-0.77,3.112,0.1356,0.7170000000000001,0.10540000000000001,0.062,-0.024,-0.034
1670267010.719965,-10.033,-0.752,3.105,0.1441,0.7164,0.1028,0.079,-0.018000000000000002,-0.018000000000000002
1670267010.759965,-10.046,-0.787,3.1,0.14450000000000002,0.7183,0.1024,0.07100000000000001,-0.008,0.0
1670267010.799965,-10.035,-0.806,3.071,0.1486,0.7206,0.1005,0.056,-0.01,0.001
1670267010.8399649,-10.05,-0.764,3.015,0.14550000000000002,0.7160000000000001,0.1042,0.048,-0.007,-0.003
1670267010.879965,-10.008000000000001,-0.729,3.1,0.1449,0.7166,0.1037,0.037,-0.008,0.003
1670267010.919965,-10.041,-0.747,3.031,0.14070000000000002,0.7184,0.1008,0.033,-0.008,0.004
1670267010.959965,-10.027000000000001,-0.736,3.001,0.14400000000000002,0.7168,0.0878,0.03,-0.005,0.003
1670267010.999965,-10.03,-0.747,2.982,0.1437,0.7146,0.1042,0.031,-0.007,0.001
1670267011.039965,-10.018,-0.729,3.0220000000000002,0.1403,0.7160000000000001,0.09240000000000001,0.027,-0.009000000000000001,0.004
1670267011.0799649,-10.012,-0.727,3.0420000000000003,0.14650000000000002,0.7173,0.10260000000000001,0.031,-0.017,-0.001
1670267011.119965,-10.019,-0.729,3.098,0.1469,0.7188,0.1042,0.033,-0.018000000000000002,-0.002
1670267011.159965,-10.027000000000001,-0.73,3.073,0.1426,0.7179,0.1024,0.028,-0.006,0.004
1670267011.199965,-9.999,-0.678,3.048,0.14350000000000002,0.7176,0.1052,0.043000000000000003,-0.002,-0.004
1670267011.239965,-9.976,-0.787,3.074,0.1456,0.7185,0.10160000000000001,0.035,-0.016,0.0
1670267011.279964,-10.097,-0.704,3.056,0.1437,0.7154,0.1038,0.034,-0.004,0.014
1670267011.319964,-10.067,-0.687,3.036,0.1449,0.7134,0.10360000000000001,0.045,0.01,0.019
1670267011.359964,-9.976,-0.729,2.971,0.14650000000000002,0.7158,0.1015,0.041,0.007,0.009000000000000001
1670267011.3999639,-9.999,-0.675,2.996,0.1459,0.7148,0.10200000000000001,0.041,0.001,-0.001
1670267011.439964,-10.072000000000001,-0.6910000000000001,3.0340000000000003,0.1448,0.7155,0.1048,0.034,-0.007,-0.006
1670267011.479964,-10.069,-0.679,3.036,0.1472,0.7165,0.10400000000000001,0.02,-0.002,-0.003
1670267011.519964,-10.024000000000001,-0.672,3.015,0.14400000000000002,0.7132000000000001,0.1023,0.003,-0.008,0.0
1670267011.559964,-10.02,-0.626,3.029,0.1468,0.7154,0.1032,0.014,-0.021,0.003
1670267011.599964,-10.026,-0.6970000000000001,3.039,0.1463,0.7119000000000001,0.10600000000000001,0.02,-0.019,-0.009000000000000001
1670267011.6399639,-10.032,-0.649,3.029,0.1462,0.7142000000000001,0.10210000000000001,0.039,-0.016,-0.02
1670267011.679964,-9.994,-0.719,3.082,0.1439,0.7126,0.1051,0.034,-0.02,-0.007
1670267011.719964,-10.026,-0.66,2.993,0.1479,0.7170000000000001,0.10600000000000001,0.016,-0.018000000000000002,0.0
1670267011.759964,-10.063,-0.559,3.035,0.1481,0.7118,0.1022,0.046,-0.009000000000000001,-0.013000000000000001
1670267011.799964,-10.082,-0.521,3.097,0.1454,0.7164,0.10740000000000001,0.121,0.021,-0.078
1670267011.839964,-10.033,-0.54,3.125,0.1449,0.7166,0.1028,0.2,0.035,-0.136
1670267011.8799639,-9.971,-0.632,3.0460000000000003,0.1463,0.7156,0.1052,0.281,0.044,-0.168
1670267011.919964,-10.065,-0.9550000000000001,2.924,0.1438,0.7182000000000001,0.1063,0.241,0.034,-0.139
1670267011.959964,-10.069,-0.763,2.998,0.14120000000000002,0.7162000000000001,0.1033,0.201,0.029,-0.133
1670267011.999964,-10.009,-1.061,2.9370000000000003,0.14300000000000002,0.7207,0.1085,0.139,0.004,-0.07200000000000001
1670267012.039964,-10.016,-0.776,2.995,0.1427,0.7204,0.1062,0.099,0.007,-0.061
1670267012.079964,-10.1,-0.909,2.96,0.1395,0.7179,0.1077,0.041,-0.003,-0.015
1670267012.119964,-10.095,-0.8190000000000001,2.955,0.14170000000000002,0.7187,0.10740000000000001,0.022,-0.004,0.024
1670267012.159964,-9.986,-0.837,2.903,0.1433,0.7196,0.1095,-0.014,-0.031,0.01
1670267012.199964,-9.956,-0.76,2.994,0.1373,0.7155,0.11230000000000001,0.0,-0.052000000000000005,-0.013000000000000001
1670267012.239964,-10.134,-0.798,2.927,0.1434,0.7201000000000001,0.1071,-0.009000000000000001,-0.03,0.011
1670267012.279964,-10.018,-0.777,3.073,0.1395,0.7212000000000001,0.1078,-0.004,-0.041,0.007
1670267012.319963,-10.043000000000001,-0.753,3.056,0.1426,0.7195,0.1057,0.007,-0.034,0.004
1670267012.359963,-10.009,-0.754,3.068,0.1426,0.7165,0.1087,0.023,-0.026000000000000002,-0.003
1670267012.399963,-10.014,-0.808,3.049,0.1386,0.7171000000000001,0.1091,0.031,-0.014,0.004
1670267012.4399629,-10.02,-0.778,3.082,0.12710000000000002,0.7143,0.11460000000000001,0.004,-0.02,0.019
1670267012.479963,-9.999,-0.863,2.997,0.1443,0.7141000000000001,0.1075,-0.003,-0.027,0.029
1670267012.519963,-10.033,-0.727,3.003,0.1423,0.7146,0.1077,0.018000000000000002,-0.025,0.0
1670267012.559963,-10.029,-0.735,3.012,0.14100000000000001,0.7175,0.1068,0.043000000000000003,-0.009000000000000001,-0.017
1670267012.599963,-10.024000000000001,-0.766,3.024,0.1438,0.7191000000000001,0.1097,0.031,-0.011,-0.01
1670267012.639963,-10.045,-0.784,3.003,0.1432,0.7179,0.10930000000000001,0.012,-0.005,0.0
1670267012.6799629,-10.033,-0.802,2.997,0.1388,0.7164,0.11380000000000001,0.014,-0.013000000000000001,0.0
1670267012.719963,-10.02,-0.753,3.0140000000000002,0.1401,0.7170000000000001,0.111,0.013000000000000001,-0.018000000000000002,-0.004
1670267012.759963,-10.062,-0.751,2.979,0.1405,0.7156,0.11040000000000001,0.023,-0.016,-0.011
1670267012.799963,-10.043000000000001,-0.739,2.99,0.1401,0.7168,0.1447,0.033,-0.018000000000000002,-0.014
1670267012.839963,-9.968,-0.773,3.043,0.14120000000000002,0.7177,0.1179,0.014,-0.027,-0.001
1670267012.879963,-10.071,-0.751,3.045,0.12760000000000002,0.7154,0.1381,0.002,-0.02,0.012
1670267012.919963,-10.06,-0.739,3.0460000000000003,0.1426,0.7155,0.12430000000000001,0.011,-0.002,0.01
1670267012.959963,-10.03,-0.729,3.029,0.1416,0.7195,0.1061,0.016,0.01,0.005
1670267012.999963,-10.001,-0.789,2.995,0.1439,0.7159,0.1081,0.007,-0.002,0.0
1670267013.039963,-10.059000000000001,-0.751,3.007,0.1434,0.7181000000000001,0.1096,0.004,-0.016,-0.006
1670267013.079963,-10.040000000000001,-0.763,3.067,0.1413,0.7174,0.1077,0.018000000000000002,-0.017,-0.013000000000000001
1670267013.119963,-10.007,-0.773,3.0340000000000003,0.1409,0.7195,0.11,0.005,-0.015,-0.012
1670267013.159963,-10.052,-0.781,3.0300000000000002,0.14450000000000002,0.7181000000000001,0.1092,0.018000000000000002,-0.012,0.0
1670267013.199963,-10.023,-0.771,3.037,0.14120000000000002,0.7162000000000001,0.1111,0.007,-0.009000000000000001,-0.002
1670267013.239963,-10.022,-0.737,3.051,0.14300000000000002,0.7171000000000001,0.1085,0.005,0.001,-0.005
1670267013.279963,-10.024000000000001,-0.775,3.037,0.14020000000000002,0.7159,0.10940000000000001,0.007,0.0,-0.003
1670267013.319963,-10.053,-0.768,3.043,0.1429,0.7146,0.1087,0.007,-0.003,0.01
1670267013.359962,-10.023,-0.753,3.0340000000000003,0.1446,0.7188,0.108,0.014,-0.007,0.007
1670267013.399962,-10.035,-0.758,3.029,0.1416,0.7198,0.1068,0.013000000000000001,-0.005,0.0
1670267013.439962,-10.06,-0.763,2.948,0.1414,0.7187,0.108,0.015,-0.008,-0.001
1670267013.4799619,-10.044,-0.762,3.0180000000000002,0.1451,0.7172000000000001,0.1101,-0.003,-0.013000000000000001,0.0
1670267013.519962,-10.034,-0.765,2.959,0.1422,0.7192000000000001,0.1105,0.005,-0.014,0.001
1670267013.559962,-10.055,-0.745,3.024,0.14200000000000002,0.7168,0.1063,0.007,-0.014,0.007
1670267013.599962,-10.041,-0.765,3.0060000000000002,0.1441,0.7181000000000001,0.10880000000000001,0.01,-0.015,0.001
1670267013.639962,-10.026,-0.756,3.029,0.1429,0.7176,0.10640000000000001,0.007,-0.007,0.009000000000000001
1670267013.679962,-10.023,-0.804,2.98,0.1442,0.7163,0.1046,-0.009000000000000001,-0.012,0.033
1670267013.719962,-10.123,-0.777,2.997,0.1376,0.7170000000000001,0.11040000000000001,-0.021,-0.017,0.05
1670267013.759962,-10.086,-0.658,2.955,0.1432,0.7170000000000001,0.10700000000000001,0.006,0.008,0.015
1670267013.799962,-10.043000000000001,-0.672,2.945,0.1449,0.7177,0.1057,0.01,-0.006,0.005
1670267013.839962,-9.97,-0.715,2.935,0.1479,0.7187,0.1087,0.026000000000000002,-0.022,-0.016
1670267013.879962,-10.077,-0.745,2.987,0.1423,0.7175,0.10450000000000001,0.029,-0.029,-0.03
1670267013.919962,-10.098,-0.797,2.989,0.1444,0.7168,0.10650000000000001,0.014,-0.031,-0.009000000000000001
1670267013.959962,-10.013,-0.735,3.004,0.14350000000000002,0.7173,0.108,0.007,-0.036000000000000004,-0.007
1670267013.999962,-10.007,-0.741,3.031,0.1434,0.7177,0.1076,0.001,-0.032,-0.001
1670267014.039962,-10.034,-0.6880000000000001,3.037,0.14400000000000002,0.7161000000000001,0.1062,0.027,-0.021,-0.016
1670267014.079962,-10.022,-0.764,3.068,0.14700000000000002,0.7170000000000001,0.1109,0.025,-0.019,-0.013000000000000001
1670267014.119962,-10.02,-0.767,3.088,0.1434,0.7193,0.10600000000000001,0.006,-0.018000000000000002,0.001
1670267014.159962,-10.032,-0.727,3.044,0.1451,0.7138,0.10830000000000001,0.019,-0.026000000000000002,-0.009000000000000001
1670267014.199962,-10.028,-0.724,3.074,0.14170000000000002,0.7170000000000001,0.10790000000000001,0.024,-0.014,-0.015
1670267014.239962,-10.02,-0.8150000000000001,3.0100000000000002,0.14120000000000002,0.7167,0.1097,0.0,-0.02,0.004
1670267014.279962,-10.040000000000001,-0.729,3.086,0.1431,0.7180000000000001,0.10930000000000001,0.001,-0.018000000000000002,-0.009000000000000001
1670267014.319962,-10.025,-0.753,3.053,0.1432,0.7187,0.11120000000000001,0.014,-0.029,-0.008
1670267014.359962,-10.035,-0.735,3.067,0.1449,0.7163,0.1061,0.016,-0.028,-0.012
1670267014.399961,-10.02,-0.777,3.0540000000000003,0.1452,0.7184,0.10690000000000001,0.006,-0.012,0.003
1670267014.439961,-9.992,-0.788,3.0540000000000003,0.1385,0.7168,0.1101,0.023,-0.016,-0.004
1670267014.479961,-9.966000000000001,-0.6980000000000001,3.071,0.1424,0.7177,0.10790000000000001,0.029,-0.012,-0.015
1670267014.5199609,-9.989,-0.8150000000000001,3.082,0.1448,0.7182000000000001,0.10840000000000001,0.011,-0.016,-0.004
1670267014.559961,-10.059000000000001,-0.753,3.061,0.1426,0.7202000000000001,0.1071,0.019,-0.008,0.005
1670267014.599961,-10.07,-0.729,3.061,0.14450000000000002,0.7143,0.1085,0.025,0.008,0.006
1670267014.639961,-9.97,-0.8210000000000001,3.004,0.14150000000000001,0.7202000000000001,0.11570000000000001,0.008,-0.011,0.028
1670267014.679961,-9.986,-0.788,3.0700000000000003,0.1351,0.7158,0.1071,-0.01,-0.014,0.029
1670267014.719961,-10.043000000000001,-0.846,3.04,0.1405,0.7129000000000001,0.1091,-0.03,-0.01,0.039
1670267014.759961,-9.962,-0.809,3.051,0.14650000000000002,0.7163,0.11280000000000001,-0.095,-0.04,0.077
1670267014.799961,-9.992,-0.857,3.085,0.14400000000000002,0.7149,0.0964,-0.148,-0.047,0.098
1670267014.839961,-10.124,-0.6960000000000001,3.081,0.1487,0.7154,0.1076,-0.20700000000000002,-0.051000000000000004,0.11900000000000001
1670267014.799961,-10.055,-0.662,3.085,0.1458,0.7154,0.1022,-0.221,-0.011,0.058
1670267014.839961,-9.959,-0.661,3.047,0.1456,0.7153,0.1028,-0.2,-0.002,0.067
1670267014.879961,-9.965,-0.587,3.0060000000000002,0.1482,0.7165,0.1051,-0.195,0.002,0.06
1670267014.919961,-10.009,-0.5680000000000001,3.0540000000000003,0.1436,0.7166,0.099,-0.127,0.005,0.023
1670267014.959961,-10.028,-0.47900000000000004,3.047,0.14850000000000002,0.7188,0.09920000000000001,-0.034,0.02,-0.024
1670267014.999961,-9.975,-0.742,2.949,0.1482,0.7188,0.1005,0.009000000000000001,0.026000000000000002,-0.049
1670267015.039961,-9.988,-0.773,2.9330000000000003,0.1456,0.7177,0.0988,0.026000000000000002,-0.009000000000000001,-0.004
1670267015.079961,-10.045,-0.748,2.996,0.14850000000000002,0.7175,0.1018,0.047,-0.012,-0.03
1670267015.119961,-10.018,-0.8130000000000001,2.955,0.1472,0.7165,0.1004,0.015,-0.02,-0.012
1670267015.159961,-10.047,-0.776,3.0100000000000002,0.1463,0.7185,0.1004,0.003,-0.015,-0.002
1670267015.199961,-10.029,-0.761,2.976,0.14730000000000001,0.7191000000000001,0.099,0.008,-0.008,-0.007
1670267015.239961,-9.937,-0.8210000000000001,2.99,0.1461,0.7195,0.09960000000000001,0.029,-0.021,-0.03
1670267015.279961,-9.962,-0.714,3.0300000000000002,0.1463,0.7188,0.099,0.031,-0.03,-0.015
1670267015.319961,-9.974,-0.742,2.923,0.1463,0.7190000000000001,0.10070000000000001,0.038,-0.043000000000000003,-0.01
1670267015.359961,-10.012,-0.706,3.0220000000000002,0.1471,0.7188,0.10110000000000001,0.063,-0.056,-0.003
1670267015.399961,-10.076,-0.769,3.15,0.1379,0.7163,0.09910000000000001,0.09,-0.026000000000000002,0.005
1670267015.43996,-10.018,-0.705,3.1270000000000002,0.14800000000000002,0.7159,0.1077,0.108,-0.016,-0.017
1670267015.47996,-10.078,-0.733,3.106,0.1427,0.7191000000000001,0.1005,0.138,0.003,-0.031
1670267015.51996,-10.061,-0.666,3.09,0.1452,0.7143,0.10300000000000001,0.17400000000000002,0.022,-0.07100000000000001
1670267015.55996,-9.967,-0.782,3.089,0.1449,0.7184,0.1041,0.156,0.015,-0.074
1670267015.59996,-9.978,-0.853,3.065,0.1466,0.7179,0.10350000000000001,0.132,0.015,-0.065
1670267015.63996,-10.032,-0.8170000000000001,3.009,0.1463,0.7180000000000001,0.10210000000000001,0.1,0.014,-0.049
1670267015.67996,-10.05,-0.812,3.036,0.1466,0.7198,0.1067,0.056,0.01,-0.011
1670267015.71996,-10.029,-0.805,3.0180000000000002,0.14450000000000002,0.7176,0.1029,0.014,-0.004,0.03
1670267015.75996,-10.031,-0.6940000000000001,3.0260000000000002,0.1464,0.7181000000000001,0.1038,0.023,-0.006,0.018000000000000002
1670267015.79996,-10.046,-0.754,2.991,0.1451,0.7166,0.1046,0.024,-0.011,0.003
1670267015.83996,-10.018,-0.765,3.033,0.1437,0.7177,0.1008,0.013000000000000001,-0.013000000000000001,0.009000000000000001
1670267015.87996,-10.028,-0.754,3.053,0.1448,0.7154,0.1034,-0.002,-0.017,0.008
1670267015.91996,-10.022,-0.752,3.059,0.1433,0.7173,0.1109,-0.009000000000000001,-0.021,0.006
1670267015.95996,-10.007,-0.704,3.0180000000000002,0.1448,0.7164,0.10250000000000001,-0.001,-0.016,-0.006
1670267015.99996,-10.037,-0.6970000000000001,3.043,0.1467,0.7168,0.10550000000000001,0.022,-0.004,-0.015
1670267016.03996,-10.044,-0.766,2.981,0.1458,0.7174,0.10640000000000001,0.023,-0.003,-0.011
1670267016.07996,-10.004,-0.799,3.0580000000000003,0.1443,0.7177,0.1013,0.011,-0.014,0.003
1670267016.11996,-10.037,-0.759,3.041,0.13970000000000002,0.7173,0.1051,0.013000000000000001,-0.004,0.017
1670267016.15996,-10.067,-0.708,2.997,0.1461,0.7188,0.1044,0.025,0.008,0.014
1670267016.19996,-10.07,-0.706,3.013,0.1448,0.7176,0.10350000000000001,0.033,0.011,0.0
1670267016.23996,-10.001,-0.672,3.028,0.14600000000000002,0.7184,0.10490000000000001,0.043000000000000003,0.002,-0.013000000000000001
1670267016.27996,-10.006,-0.755,2.979,0.1459,0.7167,0.10310000000000001,0.031,-0.007,-0.012
1670267016.31996,-10.056000000000001,-0.751,2.97,0.1469,0.7191000000000001,0.10260000000000001,0.024,-0.016,-0.006
1670267016.35996,-10.038,-0.776,2.973,0.14650000000000002,0.7185,0.1082,0.018000000000000002,-0.009000000000000001,0.002
1670267016.39996,-10.044,-0.717,3.0300000000000002,0.1441,0.7157,0.1019,0.018000000000000002,-0.011,0.007
1670267016.43996,-10.035,-0.717,3.045,0.1438,0.7162000000000001,0.1179,0.034,-0.01,-0.005
1670267016.479959,-10.043000000000001,-0.733,3.0300000000000002,0.1446,0.7173,0.0976,0.043000000000000003,-0.009000000000000001,-0.007
1670267016.519959,-10.035,-0.742,3.013,0.1426,0.7163,0.0902,0.03,-0.013000000000000001,0.0
1670267016.559959,-10.073,-0.717,2.945,0.1442,0.7185,0.0993,0.01,-0.012,0.01
1670267016.599959,-10.076,-0.6880000000000001,2.946,0.1443,0.7148,0.10400000000000001,0.018000000000000002,-0.006,0.004
1670267016.639959,-10.05,-0.721,2.998,0.13340000000000002,0.7141000000000001,0.111,0.021,-0.005,-0.004
1670267016.679959,-10.038,-0.728,2.961,0.14780000000000001,0.7174,0.10250000000000001,0.014,-0.01,-0.011
1670267016.719959,-10.043000000000001,-0.728,3.011,0.14730000000000001,0.7171000000000001,0.1024,0.008,-0.016,-0.001
1670267016.759959,-10.06,-0.72,3.0380000000000003,0.1471,0.7163,0.10160000000000001,0.01,-0.023,-0.007
1670267016.799959,-10.077,-0.6950000000000001,2.986,0.1471,0.7182000000000001,0.1058,0.009000000000000001,-0.022,-0.008
1670267016.839959,-10.049,-0.715,2.969,0.14600000000000002,0.7181000000000001,0.1027,0.023,-0.013000000000000001,-0.013000000000000001
1670267016.879959,-9.96,-0.799,3.028,0.1482,0.7188,0.10740000000000001,0.024,-0.021,-0.009000000000000001
1670267016.919959,-10.105,-0.686,3.0540000000000003,0.1476,0.7190000000000001,0.1051,0.012,-0.019,-0.009000000000000001
1670267016.959959,-10.092,-0.738,3.001,0.14830000000000002,0.7190000000000001,0.1015,0.015,-0.004,0.005
1670267016.999959,-10.019,-0.728,2.964,0.1464,0.7171000000000001,0.1015,0.008,0.004,0.002
1670267017.039959,-9.988,-0.73,2.97,0.1463,0.7188,0.1029,0.013000000000000001,-0.012,0.0
1670267017.079959,-10.049,-0.705,3.027,0.14350000000000002,0.7173,0.1027,0.003,-0.022,-0.001
1670267017.119959,-10.102,-0.6940000000000001,3.0420000000000003,0.1446,0.7190000000000001,0.1044,0.01,-0.018000000000000002,-0.009000000000000001
1670267017.159959,-10.013,-0.766,3.0060000000000002,0.14780000000000001,0.7172000000000001,0.1032,0.017,-0.025,-0.014
1670267017.199959,-10.022,-0.711,3.009,0.1459,0.7182000000000001,0.1008,0.018000000000000002,-0.022,-0.007
1670267017.239959,-10.089,-0.736,2.989,0.14780000000000001,0.7172000000000001,0.1072,0.023,-0.011,-0.007
1670267017.279959,-10.064,-0.714,3.043,0.1463,0.7174,0.1038,0.032,-0.008,-0.014
1670267017.319959,-10.018,-0.782,2.999,0.14450000000000002,0.7151000000000001,0.101,0.009000000000000001,-0.009000000000000001,0.0
1670267017.359959,-10.046,-0.714,3.009,0.14700000000000002,0.7171000000000001,0.10400000000000001,0.003,-0.017,0.004
1670267017.3999588,-10.021,-0.668,3.047,0.1454,0.7155,0.10070000000000001,0.038,-0.008,-0.008
1670267017.439959,-10.069,-0.773,2.989,0.1431,0.7170000000000001,0.1047,0.012,-0.009000000000000001,0.009000000000000001
1670267017.479959,-10.073,-0.758,2.973,0.1467,0.7176,0.1053,0.01,-0.017,0.001
1670267017.519958,-10.046,-0.665,3.013,0.1448,0.7152000000000001,0.1019,0.053,-0.009000000000000001,-0.042
1670267017.559958,-10.001,-0.74,3.053,0.1458,0.7166,0.1017,0.07200000000000001,0.006,-0.056
1670267017.599958,-10.015,-0.747,2.973,0.1468,0.7181000000000001,0.1044,0.045,0.009000000000000001,-0.029
1670267017.639958,-9.992,-0.86,2.939,0.1452,0.7182000000000001,0.1033,0.025,-0.004,-0.004
1670267017.679958,-9.941,-0.741,2.992,0.1462,0.7202000000000001,0.1048,0.022,-0.017,-0.016
1670267017.719958,-10.023,-0.787,2.96,0.1468,0.7211000000000001,0.10540000000000001,0.006,-0.021,0.007
1670267017.759958,-10.067,-0.778,2.991,0.14450000000000002,0.7166,0.10500000000000001,0.008,-0.018000000000000002,0.015
1670267017.799958,-10.068,-0.718,2.943,0.1476,0.7177,0.1052,0.014,-0.014,0.01
1670267017.839958,-9.916,-0.7030000000000001,2.934,0.1466,0.7197,0.1046,0.005,-0.051000000000000004,0.0
1670267017.879958,-10.065,-0.726,2.961,0.1376,0.7179,0.1012,0.032,-0.031,-0.007
1670267017.919958,-10.035,-0.754,3.037,0.1448,0.7141000000000001,0.1056,0.037,-0.019,-0.006
1670267017.959958,-10.038,-0.779,3.0380000000000003,0.1378,0.7151000000000001,0.1027,0.027,-0.027,-0.01
1670267017.999958,-9.983,-0.708,3.0340000000000003,0.1446,0.7178,0.1018,0.038,-0.029,-0.006
1670267018.039958,-10.025,-0.746,3.059,0.1443,0.7141000000000001,0.1046,0.032,-0.024,-0.012
1670267018.079958,-10.085,-0.765,3.019,0.14500000000000002,0.7167,0.10550000000000001,0.029,-0.023,-0.012
1670267018.119958,-10.065,-0.761,3.049,0.1457,0.7155,0.1052,0.011,-0.015,0.0
1670267018.159958,-10.008000000000001,-0.77,3.037,0.1469,0.7199,0.1071,0.014,-0.016,0.01
1670267018.1999578,-10.026,-0.677,3.0660000000000003,0.1454,0.7159,0.1032,0.022,-0.01,-0.011
1670267018.239958,-10.037,-0.734,3.077,0.1446,0.7160000000000001,0.1032,0.038,-0.01,-0.008
1670267018.279958,-10.035,-0.741,3.011,0.1456,0.7173,0.1037,0.024,-0.013000000000000001,-0.006
1670267018.319958,-10.037,-0.771,2.964,0.1414,0.7154,0.1199,0.005,-0.016,0.0
1670267018.359958,-10.016,-0.741,3.055,0.1411,0.7156,0.12100000000000001,0.023,-0.021,-0.006
1670267018.399958,-10.013,-0.745,3.039,0.1311,0.7140000000000001,0.13570000000000002,0.027,-0.016,-0.008
1670267018.4399579,-10.05,-0.726,3.041,0.1459,0.7164,0.11330000000000001,0.018000000000000002,-0.02,-0.004
1670267018.479958,-9.937,-0.757,3.028,0.1466,0.7186,0.1061,0.016,-0.012,-0.006
1670267018.519958,-10.01,-0.766,3.041,0.1471,0.7169,0.10350000000000001,0.014,-0.019,-0.004
1670267018.559958,-10.082,-0.742,3.001,0.1448,0.7164,0.1032,0.012,-0.016,0.01
1670267018.599958,-10.047,-0.713,3.0580000000000003,0.1463,0.7181000000000001,0.1081,0.023,-0.001,0.013000000000000001
1670267018.639957,-10.012,-0.732,2.98,0.1421,0.7193,0.1061,0.028,-0.002,0.001
1670267018.679957,-10.006,-0.722,3.005,0.1457,0.7182000000000001,0.10400000000000001,0.029,-0.004,-0.008
1670267018.719957,-10.089,-0.741,2.987,0.1434,0.7179,0.1063,0.034,-0.01,-0.012
1670267018.759957,-10.043000000000001,-0.811,3.04,0.1453,0.7181000000000001,0.1041,0.023,-0.013000000000000001,-0.005
1670267018.799957,-10.046,-0.72,3.0620000000000003,0.14650000000000002,0.7153,0.1037,0.011,-0.011,0.002
1670267018.839957,-10.056000000000001,-0.743,3.064,0.1441,0.7151000000000001,0.10890000000000001,0.022,-0.015,-0.005
1670267018.879957,-10.051,-0.728,2.985,0.1452,0.7159,0.1042,0.018000000000000002,-0.012,-0.004
1670267018.919957,-10.035,-0.727,3.0220000000000002,0.1428,0.7146,0.1053,0.009000000000000001,-0.005,0.004
1670267018.959957,-10.051,-0.736,3.019,0.1453,0.7186,0.1087,0.019,-0.01,-0.004
1670267018.9999568,-10.029,-0.718,3.021,0.14750000000000002,0.7181000000000001,0.10070000000000001,0.014,-0.009000000000000001,0.0
1670267019.039957,-10.025,-0.712,2.989,0.1479,0.7203,0.10450000000000001,0.015,-0.009000000000000001,-0.001
1670267019.079957,-10.026,-0.707,3.08,0.1451,0.7199,0.1042,0.023,-0.008,-0.007
1670267019.119957,-10.028,-0.755,3.028,0.1443,0.7160000000000001,0.1043,0.013000000000000001,-0.015,-0.007
1670267019.159957,-10.048,-0.742,2.998,0.14100000000000001,0.7165,0.1071,0.013000000000000001,-0.013000000000000001,-0.007
1670267019.199957,-10.029,-0.739,3.051,0.1463,0.7171000000000001,0.1058,0.005,-0.025,-0.009000000000000001
1670267019.2399569,-10.041,-0.747,2.999,0.1443,0.7177,0.1041,0.018000000000000002,-0.018000000000000002,-0.005
1670267019.279957,-10.035,-0.724,3.065,0.14880000000000002,0.7141000000000001,0.10740000000000001,0.021,-0.015,-0.008
1670267019.319957,-10.033,-0.751,3.0500000000000003,0.14730000000000001,0.7156,0.1058,0.021,-0.005,0.0
1670267019.359957,-9.949,-0.791,3.073,0.1448,0.7191000000000001,0.1048,0.003,-0.014,0.0
1670267019.399957,-10.03,-0.744,3.051,0.1429,0.7179,0.1102,0.012,-0.013000000000000001,0.014
1670267019.439957,-10.064,-0.718,3.031,0.14730000000000001,0.7162000000000001,0.1037,0.013000000000000001,-0.008,0.007
1670267019.4799569,-10.042,-0.718,2.978,0.14750000000000002,0.7190000000000001,0.10640000000000001,0.029,-0.002,0.002
1670267019.519957,-10.019,-0.713,2.958,0.1434,0.7193,0.1063,0.018000000000000002,-0.009000000000000001,0.003
1670267019.559957,-10.008000000000001,-0.717,3.039,0.14600000000000002,0.7178,0.10300000000000001,0.018000000000000002,-0.018000000000000002,-0.015
1670267019.599957,-10.079,-0.734,3.009,0.1472,0.7154,0.10400000000000001,0.015,-0.026000000000000002,-0.009000000000000001
1670267019.639957,-10.041,-0.757,3.0100000000000002,0.14500000000000002,0.7174,0.10550000000000001,0.004,-0.02,-0.002
1670267019.679956,-10.034,-0.719,3.064,0.1467,0.7173,0.1041,0.008,-0.025,-0.008
1670267019.719956,-10.058,-0.735,3.074,0.1444,0.7188,0.1042,0.014,-0.014,-0.01
1670267019.759956,-10.043000000000001,-0.734,3.051,0.14650000000000002,0.7184,0.1052,0.015,-0.008,-0.007
1670267019.7999558,-10.042,-0.743,3.043,0.1449,0.7182000000000001,0.1048,0.009000000000000001,-0.011,0.001
1670267019.839956,-10.042,-0.754,3.025,0.1471,0.7161000000000001,0.1051,0.008,-0.017,0.01
1670267019.879956,-10.034,-0.6990000000000001,3.025,0.1442,0.7169,0.1046,0.016,-0.004,0.001
1670267019.919956,-10.022,-0.761,3.015,0.1451,0.7176,0.1048,0.011,0.0,0.007
1670267019.959956,-10.05,-0.706,3.033,0.14200000000000002,0.7181000000000001,0.1047,0.023,-0.007,0.0
1670267019.999956,-10.040000000000001,-0.732,2.993,0.1457,0.7184,0.10550000000000001,0.024,-0.003,-0.007
1670267020.0399559,-9.992,-0.767,3.056,0.1432,0.7155,0.1013,0.018000000000000002,-0.016,-0.005
1670267020.079956,-10.001,-0.757,3.065,0.1468,0.7186,0.1037,0.01,-0.026000000000000002,-0.01
1670267020.119956,-10.029,-0.722,3.049,0.1432,0.7167,0.1057,0.025,-0.029,-0.017
1670267020.159956,-10.033,-0.735,3.056,0.1448,0.7178,0.10500000000000001,0.008,-0.013000000000000001,-0.003
1670267020.199956,-9.999,-0.735,3.061,0.13870000000000002,0.7162000000000001,0.09040000000000001,0.016,-0.015,-0.006
1670267020.239956,-10.044,-0.763,2.984,0.14450000000000002,0.7176,0.1312,-0.003,-0.032,0.011
1670267020.2799559,-9.985,-0.729,3.095,0.1439,0.7172000000000001,0.112,-0.001,-0.022,-0.004
1670267020.319956,-10.065,-0.849,2.999,0.1472,0.7187,0.0981,-0.017,-0.013000000000000001,0.01
1670267020.359956,-10.036,-0.744,2.989,0.14450000000000002,0.7176,0.10300000000000001,-0.065,-0.037,0.049
1670267020.399956,-9.992,-0.793,2.96,0.1522,0.7186,0.10740000000000001,-0.095,-0.043000000000000003,0.031
1670267020.439956,-10.039,-0.767,3.141,0.1462,0.7164,0.10490000000000001,-0.105,-0.06,0.02
1670267020.479956,-10.022,-0.636,3.125,0.1429,0.7140000000000001,0.10500000000000001,-0.11800000000000001,-0.06,0.042
1670267020.5199559,-10.033,-0.6900000000000001,3.111,0.1471,0.7196,0.10590000000000001,-0.026000000000000002,-0.007,-0.022
1670267020.559956,-9.945,-0.657,3.1430000000000002,0.1459,0.7196,0.1024,0.005,-0.004,-0.051000000000000004
1670267020.599956,-9.965,-0.772,3.101,0.1467,0.7209,0.1023,0.029,-0.019,-0.016
1670267020.639956,-9.98,-0.863,3.101,0.1448,0.7189,0.10640000000000001,0.005,-0.016,-0.011
1670267020.679956,-9.995000000000001,-0.75,3.132,0.1461,0.7185,0.10400000000000001,0.022,-0.033,-0.019
1670267020.719955,-10.037,-0.784,3.152,0.1443,0.7231000000000001,0.1038,0.013000000000000001,-0.026000000000000002,-0.018000000000000002
