timestamp,acc_x,acc_y,acc_z,magn_x,magn_y,magn_z,gyro_x,gyro_y,gyro_z
1670354882.16,-9.382,-0.023,4.383,-0.6494,-0.3798,0.3759,0.013000000000000001,0.023,-0.051000000000000004
1670354882.2,-9.382,-0.076,4.37,-0.6524,-0.37920000000000004,0.3733,0.014,0.019,-0.051000000000000004
1670354882.24,-9.411,-0.047,4.366,-0.6519,-0.3773,0.3753,0.02,0.008,-0.052000000000000005
1670354882.28,-9.392,-0.068,4.388,-0.6528,-0.3803,0.37520000000000003,0.024,0.006,-0.058
1670354882.32,-9.405,-0.07100000000000001,4.453,-0.6494,-0.3816,0.3739,0.009000000000000001,0.014,-0.055
1670354882.36,-9.415000000000001,-0.08600000000000001,4.39,-0.6507000000000001,-0.37820000000000004,0.374,0.003,0.016,-0.052000000000000005
1670354882.4,-9.392,-0.036000000000000004,4.424,-0.6504,-0.3791,0.3733,0.006,0.017,-0.048
1670354882.44,-9.403,-0.045,4.4190000000000005,-0.649,-0.3806,0.3781,0.014,0.027,-0.055
1670354882.48,-9.436,-0.053,4.428,-0.6519,-0.3776,0.3723,0.009000000000000001,0.022,-0.053
1670354882.52,-9.381,-0.048,4.442,-0.6494,-0.3769,0.3719,0.007,0.019,-0.047
1670354882.559999,-9.34,-0.077,4.378,-0.6493,-0.3788,0.37610000000000005,0.004,0.017,-0.049
1670354882.599999,-9.381,-0.034,4.452,-0.652,-0.38020000000000004,0.3723,0.003,0.011,-0.039
1670354882.639999,-9.476,-0.029,4.508,-0.649,-0.37920000000000004,0.37270000000000003,0.026000000000000002,0.017,-0.046
1670354882.6799989,-9.368,-0.03,4.409,-0.6504,-0.379,0.37560000000000004,0.024,0.015,-0.057
1670354882.719999,-9.399000000000001,-0.084,4.39,-0.6544,-0.3819,0.375,0.013000000000000001,0.02,-0.05
1670354882.759999,-9.416,-0.039,4.432,-0.653,-0.3814,0.3734,-0.007,0.017,-0.045
1670354882.799999,-9.409,-0.025,4.455,-0.6493,-0.3794,0.3774,-0.003,0.019,-0.053
1670354882.839999,-9.425,-0.063,4.448,-0.6519,-0.3799,0.3738,0.003,0.026000000000000002,-0.058
1670354882.879999,-9.345,-0.058,4.4590000000000005,-0.6513,-0.3781,0.37720000000000004,-0.008,0.026000000000000002,-0.054
1670354882.919999,-9.445,-0.082,4.433,-0.6523,-0.3765,0.3669,-0.002,0.033,-0.046
1670354882.959999,-9.421,-0.005,4.397,-0.6585000000000001,-0.38430000000000003,0.3841,0.009000000000000001,0.025,-0.047
1670354882.999999,-9.421,-0.005,4.398,-0.6585000000000001,-0.38430000000000003,0.38780000000000003,0.015,0.024,-0.044
1670354883.039999,-9.388,-0.022,4.398,-0.6544,-0.37920000000000004,0.38780000000000003,0.009000000000000001,0.021,-0.048
1670354883.079999,-9.388,-0.053,4.384,-0.6514,-0.3768,0.35600000000000004,0.015,0.003,-0.055
1670354883.119999,-9.438,-0.005,4.422,-0.653,-0.3783,0.37920000000000004,0.024,0.005,-0.064
1670354883.159999,-9.426,-0.07100000000000001,4.415,-0.6545000000000001,-0.3809,0.3977,0.002,0.005,-0.056
1670354883.199999,-9.389,-0.065,4.4110000000000005,-0.6534,-0.38020000000000004,0.3783,-0.01,0.012,-0.049
1670354883.239999,-9.395,-0.052000000000000005,4.4110000000000005,-0.6493,-0.37920000000000004,0.37470000000000003,-0.001,0.018000000000000002,-0.047
1670354883.279999,-9.4,-0.032,4.44,-0.6491,-0.3773,0.37220000000000003,0.008,0.021,-0.057
1670354883.319999,-9.367,-0.037,4.415,-0.6502,-0.3784,0.3755,0.009000000000000001,0.027,-0.053
1670354883.359999,-9.411,-0.079,4.44,-0.6502,-0.3791,0.37770000000000004,0.009000000000000001,0.028,-0.049
1670354883.399999,-9.397,-0.088,4.452,-0.6544,-0.3795,0.37310000000000004,0.003,0.012,-0.044
1670354883.439999,-9.418000000000001,-0.043000000000000003,4.436,-0.6497,-0.3776,0.3755,0.0,0.017,-0.028
1670354883.479999,-9.446,0.073,4.382,-0.6507000000000001,-0.3788,0.377,0.017,0.025,-0.049
1670354883.519999,-9.383000000000001,-0.07200000000000001,4.364,-0.6505000000000001,-0.38070000000000004,0.3749,0.02,0.019,-0.059000000000000004
1670354883.559999,-9.358,-0.057,4.357,-0.6507000000000001,-0.378,0.37420000000000003,0.003,0.014,-0.045
1670354883.599998,-9.408,-0.037,4.389,-0.6502,-0.37970000000000004,0.37570000000000003,-0.006,0.013000000000000001,-0.04
1670354883.639998,-9.408,0.012,4.47,-0.6521,-0.3801,0.374,0.008,0.008,-0.058
1670354883.679998,-9.406,-0.055,4.476,-0.6504,-0.3804,0.374,0.008,0.015,-0.064
1670354883.719998,-9.413,-0.10400000000000001,4.433,-0.6512,-0.37970000000000004,0.37360000000000004,-0.011,0.019,-0.046
1670354883.759998,-9.418000000000001,0.025,4.454,-0.6519,-0.3783,0.37560000000000004,-0.009000000000000001,0.032,-0.039
1670354883.799998,-9.462,-0.013000000000000001,4.446,-0.6504,-0.3789,0.3729,0.027,0.051000000000000004,-0.048
1670354883.839998,-9.372,-0.022,4.402,-0.6488,-0.3795,0.37460000000000004,0.038,0.041,-0.046
1670354883.879998,-9.381,-0.067,4.4110000000000005,-0.6483,-0.3806,0.3748,0.008,0.018000000000000002,-0.04
1670354883.919998,-9.413,-0.004,4.36,-0.6487,-0.3819,0.374,-0.004,-0.002,-0.053
1670354883.959998,-9.411,-0.05,4.4030000000000005,-0.6484,-0.3795,0.3764,-0.007,0.0,-0.053
1670354883.999998,-9.397,-0.031,4.416,-0.6509,-0.3785,0.3729,-0.007,0.009000000000000001,-0.055
1670354884.039998,-9.412,-0.041,4.408,-0.6496000000000001,-0.38170000000000004,0.3773,-0.005,0.005,-0.054
1670354884.079998,-9.409,-0.06,4.465,-0.6528,-0.377,0.38130000000000003,-0.007,0.014,-0.048
1670354884.119998,-9.381,-0.047,4.421,-0.6542,-0.3821,0.377,0.0,0.012,-0.043000000000000003
1670354884.159998,-9.405,-0.051000000000000004,4.4510000000000005,-0.6518,-0.3804,0.3754,-0.005,0.017,-0.05
1670354884.199998,-9.392,-0.046,4.4670000000000005,-0.65,-0.3781,0.3771,0.003,0.015,-0.052000000000000005
1670354884.239998,-9.356,-0.057,4.441,-0.6515000000000001,-0.379,0.3753,-0.005,0.017,-0.046
1670354884.279998,-9.387,-0.049,4.454,-0.6504,-0.37970000000000004,0.3754,-0.005,0.007,-0.051000000000000004
1670354884.319998,-9.38,0.029,4.43,-0.65,-0.37970000000000004,0.37610000000000005,0.007,0.015,-0.034
1670354884.359998,-9.399000000000001,-0.109,4.464,-0.6504,-0.37610000000000005,0.3783,0.009000000000000001,0.025,-0.049
1670354884.399998,-9.324,0.012,4.408,-0.6512,-0.3795,0.37570000000000003,0.004,0.017,-0.044
1670354884.439998,-9.406,-0.031,4.465,-0.6483,-0.3789,0.3769,0.001,0.009000000000000001,-0.035
1670354884.479998,-9.388,-0.035,4.4590000000000005,-0.6508,-0.3789,0.3766,0.008,0.005,-0.06
1670354884.519998,-9.42,-0.034,4.461,-0.6518,-0.37970000000000004,0.3765,0.009000000000000001,0.005,-0.062
1670354884.559998,-9.394,-0.138,4.499,-0.6488,-0.3778,0.3755,-0.005,0.007,-0.057
1670354884.599998,-9.349,0.013000000000000001,4.4590000000000005,-0.6512,-0.37920000000000004,0.3758,-0.002,0.003,-0.039
1670354884.639997,-9.454,-0.093,4.491,-0.6483,-0.3798,0.3764,0.009000000000000001,0.021,-0.041
1670354884.679997,-9.371,0.006,4.479,-0.6495000000000001,-0.3798,0.3783,0.015,0.028,-0.053
1670354884.719997,-9.324,-0.039,4.439,-0.6505000000000001,-0.3798,0.3759,0.017,0.023,-0.046
1670354884.759997,-9.405,-0.037,4.44,-0.6496000000000001,-0.3799,0.3766,0.008,0.014,-0.049
1670354884.799997,-9.393,-0.022,4.463,-0.6508,-0.3796,0.37870000000000004,0.01,0.012,-0.049
1670354884.839997,-9.372,-0.061,4.4670000000000005,-0.6527000000000001,-0.3774,0.3778,0.007,0.011,-0.056
1670354884.879997,-9.405,-0.032,4.43,-0.6529,-0.37870000000000004,0.3775,-0.002,0.024,-0.048
1670354884.919997,-9.392,-0.022,4.48,-0.648,-0.3769,0.3765,-0.005,0.017,-0.043000000000000003
1670354884.959997,-9.403,-0.049,4.449,-0.6517000000000001,-0.3803,0.3789,0.009000000000000001,0.028,-0.05
1670354884.999997,-9.396,-0.007,4.472,-0.6507000000000001,-0.3811,0.37510000000000004,0.007,0.024,-0.048
1670354885.039997,-9.353,-0.038,4.439,-0.6539,-0.3814,0.38,0.016,0.017,-0.043000000000000003
1670354885.079997,-9.342,-0.032,4.458,-0.65,-0.3816,0.3784,0.001,0.012,-0.048
1670354885.119997,-9.395,-0.004,4.491,-0.6566000000000001,-0.3824,0.3793,0.0,0.01,-0.039
1670354885.159997,-9.418000000000001,-0.032,4.478,-0.6486000000000001,-0.3801,0.38,0.018000000000000002,0.014,-0.046
1670354885.199997,-9.418000000000001,0.02,4.463,-0.6486000000000001,-0.38020000000000004,0.3718,0.015,0.016,-0.047
1670354885.239997,-9.349,0.02,4.463,-0.6504,-0.38020000000000004,0.3718,0.013000000000000001,0.019,-0.053
1670354885.279997,-9.379,-0.028,4.4270000000000005,-0.6536000000000001,-0.3801,0.37310000000000004,0.013000000000000001,0.016,-0.048
1670354885.319997,-9.423,-0.014,4.454,-0.6486000000000001,-0.3803,0.365,0.012,0.012,-0.056
1670354885.359997,-9.374,0.0,4.5120000000000005,-0.6502,-0.381,0.38330000000000003,0.006,0.02,-0.065
1670354885.399997,-9.353,-0.07100000000000001,4.485,-0.6515000000000001,-0.37970000000000004,0.38730000000000003,-0.012,0.02,-0.057
1670354885.439997,-9.323,0.012,4.444,-0.6498,-0.3785,0.3764,-0.001,0.029,-0.055
1670354885.479997,-9.423,-0.089,4.482,-0.6503,-0.38170000000000004,0.3765,0.009000000000000001,0.023,-0.049
1670354885.519997,-9.405,0.014,4.463,-0.6513,-0.3795,0.37720000000000004,0.019,0.024,-0.054
1670354885.5599968,-9.341000000000001,-0.043000000000000003,4.442,-0.6507000000000001,-0.3801,0.3758,0.015,0.018000000000000002,-0.046
1670354885.599997,-9.387,-0.013000000000000001,4.477,-0.6505000000000001,-0.3795,0.37610000000000005,0.017,0.016,-0.054
1670354885.639997,-9.408,-0.016,4.462,-0.6515000000000001,-0.3786,0.3776,0.016,0.012,-0.058
1670354885.679996,-9.391,-0.06,4.484,-0.6511,-0.38070000000000004,0.3765,0.001,0.008,-0.051000000000000004
1670354885.719996,-9.379,-0.044,4.442,-0.6496000000000001,-0.379,0.3786,-0.002,0.019,-0.049
1670354885.759996,-9.396,-0.03,4.465,-0.6496000000000001,-0.3799,0.3779,0.009000000000000001,0.022,-0.051000000000000004
1670354885.799996,-9.379,-0.019,4.48,-0.6518,-0.3803,0.3791,0.012,0.023,-0.052000000000000005
1670354885.839996,-9.376,-0.038,4.473,-0.6491,-0.38120000000000004,0.3795,0.008,0.019,-0.048
1670354885.879996,-9.391,0.001,4.422,-0.6537000000000001,-0.38320000000000004,0.3856,0.007,0.015,-0.049
1670354885.919996,-9.354000000000001,-0.028,4.491,-0.6502,-0.3806,0.3776,0.014,0.01,-0.048
1670354885.959996,-9.38,-0.057,4.478,-0.6527000000000001,-0.38120000000000004,0.3794,0.003,0.015,-0.053
1670354885.999996,-9.387,0.002,4.442,-0.6495000000000001,-0.3805,0.3764,0.003,0.015,-0.039
1670354886.039996,-9.393,0.065,4.49,-0.6515000000000001,-0.382,0.3768,0.017,0.019,-0.045
1670354886.079996,-9.404,-0.091,4.46,-0.6487,-0.3789,0.3776,0.01,0.02,-0.053
1670354886.119996,-9.34,-0.002,4.418,-0.6557000000000001,-0.3821,0.3795,0.011,0.023,-0.051000000000000004
1670354886.159996,-9.39,-0.014,4.486,-0.655,-0.38280000000000003,0.37870000000000004,-0.009000000000000001,0.019,-0.047
1670354886.199996,-9.357,0.016,4.508,-0.6511,-0.3805,0.3789,-0.003,0.016,-0.049
1670354886.239996,-9.409,-0.025,4.47,-0.6521,-0.37970000000000004,0.3785,0.003,0.017,-0.057
1670354886.279996,-9.378,-0.082,4.469,-0.6522,-0.3808,0.3779,-0.002,0.01,-0.055
1670354886.319996,-9.374,0.056,4.463,-0.6517000000000001,-0.3804,0.3783,0.001,0.02,-0.042
1670354886.359996,-9.413,-0.018000000000000002,4.4590000000000005,-0.6513,-0.3804,0.3775,0.007,0.019,-0.047
1670354886.399996,-9.366,-0.004,4.479,-0.6482,-0.38380000000000003,0.3776,0.019,0.021,-0.051000000000000004
1670354886.439996,-9.347,-0.022,4.461,-0.6513,-0.38270000000000004,0.37670000000000003,0.006,0.015,-0.041
1670354886.479996,-9.370000000000001,0.004,4.491,-0.6488,-0.3809,0.37870000000000004,0.005,0.013000000000000001,-0.048
1670354886.519996,-9.376,-0.023,4.463,-0.6517000000000001,-0.3798,0.3776,0.008,0.01,-0.068
1670354886.559996,-9.385,-0.038,4.454,-0.6513,-0.3839,0.3779,0.0,0.01,-0.058
1670354886.5999959,-9.376,-0.029,4.509,-0.6529,-0.3794,0.3781,-0.008,0.013000000000000001,-0.043000000000000003
1670354886.639996,-9.378,-0.01,4.47,-0.6543,-0.3794,0.3809,0.0,0.018000000000000002,-0.045
1670354886.679996,-9.404,-0.027,4.452,-0.6519,-0.3815,0.37770000000000004,0.008,0.025,-0.053
1670354886.719995,-9.372,-0.033,4.466,-0.6502,-0.37970000000000004,0.376,0.008,0.023,-0.047
1670354886.759995,-9.381,-0.02,4.493,-0.6509,-0.38220000000000004,0.3785,0.008,0.019,-0.045
1670354886.799995,-9.35,-0.014,4.461,-0.6517000000000001,-0.3803,0.3744,0.009000000000000001,0.012,-0.048
1670354886.839995,-9.386000000000001,-0.021,4.43,-0.6504,-0.37870000000000004,0.3755,0.004,0.017,-0.055
1670354886.879995,-9.406,0.002,4.493,-0.6502,-0.3808,0.3769,0.01,0.016,-0.052000000000000005
1670354886.919995,-9.387,-0.041,4.5120000000000005,-0.6499,-0.3783,0.37670000000000003,0.005,0.017,-0.047
1670354886.959995,-9.335,-0.047,4.46,-0.6502,-0.3803,0.3784,-0.001,0.022,-0.049
1670354886.999995,-9.397,0.011,4.482,-0.651,-0.38120000000000004,0.3789,0.001,0.025,-0.038
1670354887.039995,-9.456,0.037,4.525,-0.6494,-0.3814,0.37570000000000003,0.013000000000000001,0.019,-0.045
1670354887.079995,-9.335,0.0,4.476,-0.651,-0.37970000000000004,0.3775,0.018000000000000002,0.024,-0.061
1670354887.119995,-9.357,-0.053,4.454,-0.6513,-0.3814,0.3783,0.001,0.02,-0.051000000000000004
1670354887.159995,-9.383000000000001,0.007,4.507,-0.6503,-0.38020000000000004,0.3786,0.0,0.012,-0.047
1670354887.199995,-9.377,0.028,4.5120000000000005,-0.6512,-0.3809,0.3798,0.009000000000000001,0.01,-0.057
1670354887.239995,-9.383000000000001,-0.043000000000000003,4.51,-0.6529,-0.381,0.37770000000000004,0.004,0.016,-0.053
1670354887.279995,-9.352,-0.046,4.476,-0.6529,-0.381,0.37570000000000003,-0.015,0.02,-0.053
1670354887.319995,-9.417,0.04,4.497,-0.6545000000000001,-0.3803,0.3693,-0.002,0.029,-0.041
1670354887.359995,-9.395,0.027,4.5040000000000004,-0.6521,-0.382,0.38530000000000003,0.008,0.029,-0.051000000000000004
1670354887.3999949,-9.395,-0.012,4.408,-0.6521,-0.382,0.3902,0.006,0.029,-0.051000000000000004
1670354887.439995,-9.35,-0.012,4.448,-0.6538,-0.382,0.3902,-0.002,0.019,-0.044
1670354887.479995,-9.377,-0.013000000000000001,4.448,-0.6534,-0.3805,0.4007,0.004,0.01,-0.05
1670354887.519995,-9.387,0.016,4.457,-0.6521,-0.37970000000000004,0.3715,0.009000000000000001,0.015,-0.055
1670354887.559995,-9.399000000000001,-0.027,4.473,-0.657,-0.3811,0.3875,-0.007,0.032,-0.042
1670354887.599995,-9.381,-0.044,4.449,-0.6508,-0.3808,0.36860000000000004,-0.029,0.031,-0.029
1670354887.6399949,-9.421,-0.022,4.412,-0.6477,-0.37970000000000004,0.37420000000000003,-0.004,0.023,-0.035
1670354887.679995,-9.354000000000001,0.023,4.429,-0.6512,-0.3825,0.37920000000000004,0.018000000000000002,0.01,-0.048
1670354887.719995,-9.352,-0.007,4.452,-0.6528,-0.3808,0.3739,0.034,-0.01,-0.07
1670354887.759995,-9.401,-0.001,4.458,-0.6523,-0.3819,0.3796,0.024,-0.006,-0.065
1670354887.799995,-9.342,-0.037,4.473,-0.6538,-0.3834,0.379,0.009000000000000001,-0.01,-0.051000000000000004
1670354887.839994,-9.353,0.042,4.519,-0.6543,-0.3831,0.37620000000000003,0.015,0.002,-0.046
1670354887.879994,-9.355,0.002,4.532,-0.6541,-0.38230000000000003,0.38480000000000003,0.025,0.007,-0.049
1670354887.919994,-9.382,0.047,4.505,-0.6512,-0.3804,0.3781,0.018000000000000002,0.012,-0.049
1670354887.959994,-9.338000000000001,0.01,4.519,-0.6667000000000001,-0.3855,0.38170000000000004,0.004,0.015,-0.051000000000000004
1670354887.999994,-9.318,-0.022,4.529,-0.6513,-0.3819,0.3774,-0.003,0.018000000000000002,-0.051000000000000004
1670354888.039994,-9.412,0.018000000000000002,4.531,-0.6572,-0.38230000000000003,0.37920000000000004,-0.009000000000000001,0.023,-0.046
1670354888.079994,-9.42,0.029,4.532,-0.6513,-0.3801,0.3763,-0.015,0.041,-0.06
1670354888.119994,-9.349,0.023,4.46,-0.6542,-0.382,0.3755,-0.016,0.028,-0.063
1670354888.159994,-9.34,-0.021,4.429,-0.6513,-0.3791,0.3773,-0.01,0.024,-0.053
1670354888.1999938,-9.391,-0.019,4.505,-0.6519,-0.3811,0.3819,-0.006,0.023,-0.059000000000000004
1670354888.239994,-9.373,-0.016,4.505,-0.6528,-0.381,0.3831,0.004,0.025,-0.054
1670354888.279994,-9.361,-0.067,4.515,-0.6523,-0.3809,0.3759,0.0,0.025,-0.065
1670354888.319994,-9.384,-0.076,4.4750000000000005,-0.657,-0.3794,0.37920000000000004,-0.009000000000000001,0.029,-0.047
1670354888.359994,-9.396,-0.011,4.488,-0.6497,-0.3793,0.37670000000000003,0.003,0.034,-0.051000000000000004
1670354888.399994,-9.389,-0.019,4.461,-0.6504,-0.3798,0.3754,0.006,0.031,-0.056
1670354888.4399939,-9.335,-0.031,4.458,-0.6533,-0.37720000000000004,0.375,0.008,0.023,-0.045
1670354888.479994,-9.376,-0.019,4.4270000000000005,-0.6525000000000001,-0.3776,0.37720000000000004,0.002,0.018000000000000002,-0.047
1670354888.519994,-9.385,0.017,4.49,-0.6532,-0.37970000000000004,0.377,0.015,0.011,-0.06
1670354888.559994,-9.399000000000001,-0.067,4.463,-0.6524,-0.3794,0.3769,0.019,0.011,-0.06
1670354888.599994,-9.372,-0.029,4.503,-0.6507000000000001,-0.38070000000000004,0.3776,0.008,0.009000000000000001,-0.049
1670354888.639994,-9.35,-0.041,4.484,-0.6517000000000001,-0.38120000000000004,0.3779,0.002,0.012,-0.041
1670354888.6799939,-9.365,-0.002,4.478,-0.6532,-0.3808,0.3783,0.008,0.022,-0.047
1670354888.719994,-9.372,-0.049,4.4750000000000005,-0.6542,-0.3808,0.3764,0.007,0.025,-0.05
1670354888.759994,-9.381,-0.02,4.473,-0.6512,-0.3816,0.3764,0.006,0.022,-0.05
1670354888.799994,-9.389,-0.021,4.4670000000000005,-0.6501,-0.3793,0.3771,0.002,0.025,-0.051000000000000004
1670354888.839994,-9.356,-0.007,4.4670000000000005,-0.6524,-0.37820000000000004,0.37820000000000004,0.004,0.02,-0.06
1670354888.879993,-9.382,-0.016,4.47,-0.6514,-0.3795,0.3783,0.015,0.017,-0.057
1670354888.919993,-9.337,-0.029,4.469,-0.6505000000000001,-0.379,0.3785,0.0,0.015,-0.052000000000000005
1670354888.959993,-9.364,-0.014,4.454,-0.6521,-0.3805,0.37610000000000005,0.008,0.012,-0.04
1670354888.9999928,-9.441,-0.001,4.482,-0.6521,-0.3815,0.3759,0.018000000000000002,0.018000000000000002,-0.052000000000000005
1670354889.039993,-9.328,-0.015,4.448,-0.6526000000000001,-0.3805,0.3781,0.012,0.013000000000000001,-0.053
1670354889.079993,-9.356,-0.04,4.4510000000000005,-0.6507000000000001,-0.3805,0.37820000000000004,0.0,0.013000000000000001,-0.045
1670354889.119993,-9.370000000000001,-0.038,4.487,-0.6516000000000001,-0.3811,0.3759,-0.004,0.01,-0.047
1670354889.159993,-9.386000000000001,-0.004,4.49,-0.653,-0.3809,0.3779,0.004,0.009000000000000001,-0.058
1670354889.199993,-9.367,-0.049,4.516,-0.6496000000000001,-0.3811,0.3801,0.004,0.009000000000000001,-0.057
1670354889.2399929,-9.361,-0.07100000000000001,4.469,-0.6498,-0.381,0.38120000000000004,-0.003,0.012,-0.05
1670354889.279993,-9.408,0.022,4.507,-0.6532,-0.3789,0.3811,0.011,0.022,-0.044
1670354889.319993,-9.4,0.004,4.51,-0.6521,-0.3835,0.3784,0.014,0.025,-0.048
1670354889.359993,-9.351,-0.045,4.494,-0.6526000000000001,-0.3801,0.3803,0.016,0.019,-0.045
1670354889.399993,-9.348,-0.018000000000000002,4.466,-0.6497,-0.3794,0.3794,0.004,0.012,-0.041
1670354889.439993,-9.387,0.02,4.5040000000000004,-0.6511,-0.38070000000000004,0.3783,0.009000000000000001,0.008,-0.047
1670354889.4799929,-9.370000000000001,-0.045,4.506,-0.6516000000000001,-0.3801,0.37820000000000004,0.016,0.004,-0.062
1670354889.519993,-9.366,-0.039,4.518,-0.6518,-0.38120000000000004,0.3781,-0.002,0.006,-0.054
1670354889.559993,-9.355,-0.02,4.482,-0.6513,-0.38170000000000004,0.38430000000000003,-0.005,0.011,-0.044
1670354889.599993,-9.36,0.014,4.5040000000000004,-0.6521,-0.3811,0.3811,0.001,0.016,-0.043000000000000003
1670354889.639993,-9.36,-0.029,4.529,-0.6521,-0.3811,0.4007,0.011,0.017,-0.05
1670354889.679993,-9.354000000000001,-0.029,4.529,-0.6534,-0.38120000000000004,0.4007,0.009000000000000001,0.026000000000000002,-0.046
1670354889.7199929,-9.337,-0.009000000000000001,4.5280000000000005,-0.6536000000000001,-0.3809,0.3753,0.01,0.018000000000000002,-0.04
1670354889.759993,-9.343,-0.037,4.519,-0.6546000000000001,-0.3806,0.3642,0.007,0.018000000000000002,-0.045
1670354889.799993,-9.347,0.01,4.503,-0.6537000000000001,-0.3809,0.38180000000000003,0.011,0.019,-0.053
1670354889.839993,-9.345,0.002,4.493,-0.6535000000000001,-0.3831,0.3917,0.002,0.016,-0.052000000000000005
1670354889.879993,-9.304,-0.012,4.494,-0.6539,-0.383,0.3739,-0.003,0.016,-0.041
1670354889.919992,-9.371,0.0,4.484,-0.6513,-0.3831,0.3795,0.012,0.011,-0.04
1670354889.959992,-9.431000000000001,0.035,4.527,-0.6647000000000001,-0.3851,0.38920000000000005,0.01,0.019,-0.051000000000000004
1670354889.999992,-9.309000000000001,0.011,4.497,-0.652,-0.3805,0.3794,-0.002,0.019,-0.056
1670354890.0399919,-9.314,-0.003,4.466,-0.6563,-0.3825,0.3801,-0.007,0.014,-0.043000000000000003
1670354890.079992,-9.375,0.0,4.531,-0.652,-0.3826,0.3796,0.0,0.009000000000000001,-0.057
1670354890.119992,-9.368,0.02,4.525,-0.6564,-0.3866,0.3914,0.003,0.009000000000000001,-0.055
1670354890.159992,-9.357,-0.054,4.551,-0.6534,-0.3806,0.3773,-0.009000000000000001,0.015,-0.054
1670354890.199992,-9.358,-0.067,4.538,-0.6646000000000001,-0.3836,0.38220000000000004,-0.004,0.019,-0.04
1670354890.239992,-9.411,0.038,4.526,-0.6521,-0.3824,0.3795,0.009000000000000001,0.029,-0.045
1670354890.2799919,-9.376,0.007,4.5,-0.6539,-0.38280000000000003,0.38220000000000004,0.004,0.035,-0.046
1670354890.319992,-9.321,-0.016,4.509,-0.6512,-0.38,0.3795,-0.001,0.02,-0.042
1670354890.359992,-9.329,0.007,4.515,-0.6526000000000001,-0.3809,0.3775,0.005,0.011,-0.045
1670354890.399992,-9.357,0.027,4.472,-0.65,-0.3806,0.3826,0.01,0.006,-0.055
1670354890.439992,-9.354000000000001,-0.007,4.503,-0.6519,-0.3816,0.3776,0.005,-0.001,-0.05
1670354890.479992,-9.369,-0.034,4.513,-0.6545000000000001,-0.38,0.379,-0.009000000000000001,0.006,-0.053
1670354890.5199919,-9.381,-0.011,4.521,-0.65,-0.3809,0.38280000000000003,-0.007,0.018000000000000002,-0.049
1670354890.559992,-9.34,-0.011,4.5440000000000005,-0.6499,-0.3795,0.3805,-0.001,0.016,-0.049
1670354890.599992,-9.345,-0.026000000000000002,4.541,-0.6514,-0.3784,0.3808,-0.003,0.021,-0.053
1670354890.639992,-9.336,-0.025,4.516,-0.6511,-0.38330000000000003,0.38070000000000004,-0.001,0.02,-0.048
1670354890.679992,-9.376,-0.01,4.558,-0.6485000000000001,-0.3806,0.3831,0.0,0.013000000000000001,-0.048
1670354890.719992,-9.326,-0.023,4.561,-0.6527000000000001,-0.3814,0.3811,0.009000000000000001,0.008,-0.052000000000000005
1670354890.759992,-9.323,-0.037,4.569,-0.6512,-0.3779,0.3789,0.01,0.014,-0.057
1670354890.799992,-9.332,-0.022,4.534,-0.6499,-0.3801,0.3814,0.009000000000000001,0.01,-0.044
1670354890.839992,-9.39,0.017,4.55,-0.6493,-0.3803,0.3811,0.013000000000000001,0.021,-0.041
1670354890.879992,-9.357,-0.06,4.5440000000000005,-0.6518,-0.38020000000000004,0.3804,0.012,0.029,-0.046
1670354890.919992,-9.303,0.028,4.507,-0.6526000000000001,-0.3831,0.38280000000000003,0.005,0.022,-0.048
1670354890.959991,-9.357,-0.007,4.497,-0.6505000000000001,-0.382,0.37970000000000004,0.004,0.021,-0.043000000000000003
1670354890.999991,-9.339,-0.001,4.567,-0.6527000000000001,-0.38130000000000003,0.378,0.004,0.02,-0.058
1670354891.039991,-9.349,-0.024,4.525,-0.6498,-0.3803,0.3798,-0.001,0.018000000000000002,-0.053
1670354891.0799909,-9.368,-0.056,4.487,-0.6529,-0.3804,0.3798,-0.006,0.019,-0.041
1670354891.119991,-9.336,0.065,4.531,-0.6532,-0.3819,0.3788,-0.001,0.014,-0.04
1670354891.159991,-9.375,-0.047,4.527,-0.6523,-0.38170000000000004,0.381,0.01,0.032,-0.048
1670354891.199991,-9.288,0.016,4.484,-0.6515000000000001,-0.38070000000000004,0.37970000000000004,0.014,0.03,-0.046
1670354891.239991,-9.339,-0.016,4.539,-0.6506000000000001,-0.38230000000000003,0.383,0.011,0.014,-0.04
1670354891.279991,-9.361,0.04,4.53,-0.6511,-0.3834,0.38520000000000004,0.008,0.006,-0.057
1670354891.3199909,-9.370000000000001,-0.003,4.554,-0.6543,-0.3844,0.37820000000000004,0.01,0.008,-0.054
1670354891.359991,-9.346,-0.04,4.497,-0.654,-0.3819,0.3795,0.006,0.006,-0.061
1670354891.399991,-9.34,0.001,4.53,-0.6504,-0.38170000000000004,0.3806,-0.002,0.018000000000000002,-0.047
1670354891.439991,-9.351,0.004,4.564,-0.6524,-0.38280000000000003,0.3814,0.002,0.023,-0.046
1670354891.479991,-9.352,-0.014,4.569,-0.6538,-0.3803,0.38020000000000004,0.005,0.028,-0.053
1670354891.519991,-9.355,-0.013000000000000001,4.5360000000000005,-0.6512,-0.3794,0.3808,0.009000000000000001,0.029,-0.049
1670354891.559991,-9.372,-0.002,4.53,-0.651,-0.3821,0.3798,0.003,0.027,-0.051000000000000004
1670354891.599991,-9.356,-0.008,4.53,-0.6512,-0.3831,0.3805,0.005,0.021,-0.052000000000000005
1670354891.639991,-9.366,-0.026000000000000002,4.55,-0.6507000000000001,-0.3816,0.3819,0.003,0.018000000000000002,-0.054
1670354891.679991,-9.384,0.0,4.554,-0.6513,-0.3825,0.3781,0.004,0.009000000000000001,-0.053
1670354891.719991,-9.386000000000001,0.068,4.503,-0.6521,-0.38170000000000004,0.3794,0.006,0.014,-0.042
1670354891.759991,-9.35,-0.07,4.501,-0.65,-0.3819,0.38880000000000003,0.007,0.031,-0.051000000000000004
1670354891.799991,-9.246,0.007,4.53,-0.6517000000000001,-0.382,0.3935,0.006,0.012,-0.052000000000000005
1670354891.839991,-9.246,0.058,4.484,-0.6517000000000001,-0.382,0.3815,0.033,0.001,-0.06
1670354891.879991,-9.370000000000001,0.058,4.484,-0.6565000000000001,-0.3841,0.3815,0.03,0.005,-0.07200000000000001
1670354891.919991,-9.345,0.013000000000000001,4.501,-0.654,-0.3816,0.37420000000000003,0.024,-0.006,-0.063
1670354891.959991,-9.378,-0.041,4.566,-0.6527000000000001,-0.38020000000000004,0.38730000000000003,0.031,0.0,-0.054
1670354891.99999,-9.346,-0.03,4.5120000000000005,-0.6556000000000001,-0.382,0.3698,0.043000000000000003,-0.007,-0.053
1670354892.03999,-9.333,0.11900000000000001,4.49,-0.6574,-0.3839,0.3936,0.064,0.008,-0.053
1670354892.07999,-9.346,-0.08,4.509,-0.653,-0.3831,0.38430000000000003,0.049,0.011,-0.045
1670354892.1199899,-9.324,-0.004,4.557,-0.6664,-0.3861,0.3884,0.019,0.014,-0.019
1670354892.15999,-9.312,0.015,4.572,-0.6543,-0.3855,0.3816,0.008,0.006,-0.018000000000000002
1670354892.19999,-9.32,0.09,4.572,-0.6553,-0.38530000000000003,0.382,0.021,0.011,-0.047
1670354892.23999,-9.342,0.09,4.5760000000000005,-0.6526000000000001,-0.3839,0.38470000000000004,0.012,0.019,-0.064
1670354892.27999,-9.297,0.025,4.534,-0.6598,-0.3889,0.3914,-0.004,0.023,-0.05
1670354892.31999,-9.317,0.053,4.493,-0.6563,-0.38270000000000004,0.38580000000000003,-0.007,0.019,-0.043000000000000003
1670354892.35999,-9.371,0.146,4.572,-0.6518,-0.38520000000000004,0.38130000000000003,0.023,0.029,-0.065
1670354892.39999,-9.287,0.067,4.564,-0.653,-0.38580000000000003,0.381,0.036000000000000004,0.035,-0.069
1670354892.43999,-9.290000000000001,-0.002,4.565,-0.6564,-0.38520000000000004,0.3824,0.003,0.029,-0.047
1670354892.47999,-9.352,0.032,4.57,-0.65,-0.38670000000000004,0.3839,-0.012,0.028,-0.048
1670354892.51999,-9.338000000000001,0.068,4.51,-0.6505000000000001,-0.38470000000000004,0.38330000000000003,-0.01,0.026000000000000002,-0.057
1670354892.55999,-9.332,0.015,4.501,-0.6515000000000001,-0.3844,0.3798,-0.012,0.024,-0.063
1670354892.59999,-9.333,-0.011,4.54,-0.6537000000000001,-0.3856,0.3816,-0.013000000000000001,0.02,-0.051000000000000004
1670354892.63999,-9.381,0.035,4.553,-0.6537000000000001,-0.3839,0.38280000000000003,-0.008,0.028,-0.04
1670354892.67999,-9.432,0.10300000000000001,4.513,-0.6536000000000001,-0.3845,0.3841,0.015,0.034,-0.059000000000000004
1670354892.71999,-9.327,0.014,4.47,-0.653,-0.3851,0.38070000000000004,0.012,0.024,-0.054
1670354892.75999,-9.325000000000001,-0.003,4.493,-0.6526000000000001,-0.3829,0.3819,0.008,0.017,-0.039
1670354892.79999,-9.345,0.043000000000000003,4.501,-0.6504,-0.3844,0.38120000000000004,0.005,0.014,-0.043000000000000003
1670354892.83999,-9.362,0.064,4.519,-0.6505000000000001,-0.38480000000000003,0.3811,0.013000000000000001,0.001,-0.052000000000000005
1670354892.87999,-9.356,0.017,4.58,-0.6521,-0.38380000000000003,0.38,0.013000000000000001,0.012,-0.049
1670354892.91999,-9.349,-0.002,4.561,-0.6505000000000001,-0.383,0.3793,0.0,0.018000000000000002,-0.05
1670354892.95999,-9.408,0.099,4.572,-0.6532,-0.38470000000000004,0.3836,0.001,0.024,-0.04
1670354892.99999,-9.36,0.066,4.537,-0.6546000000000001,-0.3836,0.3821,0.013000000000000001,0.037,-0.048
1670354893.039989,-9.33,0.037,4.5120000000000005,-0.6524,-0.38680000000000003,0.3816,0.013000000000000001,0.026000000000000002,-0.047
1670354893.079989,-9.323,0.04,4.532,-0.6525000000000001,-0.3866,0.3835,-0.009000000000000001,0.019,-0.041
1670354893.119989,-9.339,0.073,4.531,-0.6532,-0.3836,0.3804,-0.007,0.014,-0.05
1670354893.1599889,-9.355,0.034,4.563,-0.6489,-0.38430000000000003,0.3825,0.006,0.014,-0.061
1670354893.199989,-9.339,-0.007,4.527,-0.653,-0.3831,0.3815,-0.007,0.014,-0.052000000000000005
1670354893.239989,-9.328,0.025,4.516,-0.6518,-0.38230000000000003,0.3819,-0.026000000000000002,0.023,-0.042
1670354893.279989,-9.359,0.048,4.57,-0.6549,-0.38380000000000003,0.3788,-0.011,0.023,-0.052000000000000005
1670354893.319989,-9.343,0.048,4.551,-0.6513,-0.38470000000000004,0.38520000000000004,0.0,0.032,-0.06
1670354893.359989,-9.355,0.01,4.491,-0.6498,-0.3831,0.383,-0.003,0.029,-0.054
1670354893.399989,-9.365,0.021,4.526,-0.654,-0.38280000000000003,0.38280000000000003,-0.013000000000000001,0.022,-0.045
1670354893.439989,-9.348,0.038,4.534,-0.6518,-0.38420000000000004,0.38180000000000003,-0.011,0.022,-0.054
1670354893.479989,-9.35,0.004,4.5600000000000005,-0.6545000000000001,-0.3821,0.38170000000000004,-0.002,0.021,-0.053
1670354893.519989,-9.362,-0.028,4.515,-0.6518,-0.38420000000000004,0.3811,0.0,0.025,-0.051000000000000004
1670354893.559989,-9.391,0.011,4.546,-0.6505000000000001,-0.3814,0.3819,-0.009000000000000001,0.016,-0.045
1670354893.599989,-9.397,0.107,4.531,-0.6518,-0.38230000000000003,0.3809,0.006,0.019,-0.039
1670354893.639989,-9.344,-0.07,4.469,-0.6515000000000001,-0.3831,0.3811,0.004,0.036000000000000004,-0.057
1670354893.679989,-9.308,0.02,4.483,-0.6512,-0.3816,0.3814,-0.005,0.032,-0.049
1670354893.719989,-9.346,0.014,4.49,-0.6505000000000001,-0.38230000000000003,0.37820000000000004,-0.009000000000000001,0.02,-0.04
1670354893.759989,-9.375,0.033,4.561,-0.6552,-0.38270000000000004,0.3859,0.002,0.005,-0.053
1670354893.799989,-9.368,-0.017,4.559,-0.6536000000000001,-0.3824,0.382,0.006,0.005,-0.054
1670354893.839989,-9.324,-0.044,4.557,-0.6507000000000001,-0.38220000000000004,0.3803,0.004,0.012,-0.049
1670354893.879989,-9.309000000000001,0.079,4.525,-0.6521,-0.384,0.3811,-0.005,0.011,-0.04
1670354893.919989,-9.370000000000001,-0.032,4.546,-0.6526000000000001,-0.383,0.3821,0.018000000000000002,0.026000000000000002,-0.042
1670354893.959989,-9.338000000000001,0.025,4.521,-0.6494,-0.3839,0.3849,0.019,0.032,-0.052000000000000005
1670354893.999989,-9.327,0.013000000000000001,4.5200000000000005,-0.6539,-0.38480000000000003,0.385,0.01,0.025,-0.043000000000000003
1670354894.039989,-9.327,0.055,4.519,-0.6539,-0.38480000000000003,0.38880000000000003,0.003,0.018000000000000002,-0.045
1670354894.079988,-9.339,0.055,4.551,-0.6543,-0.38480000000000003,0.39690000000000003,0.01,0.012,-0.056
1670354894.119988,-9.36,0.029,4.551,-0.6667000000000001,-0.38670000000000004,0.39690000000000003,0.01,0.012,-0.058
1670354894.159988,-9.353,-0.011,4.478,-0.6548,-0.38370000000000004,0.36460000000000004,-0.003,0.017,-0.052000000000000005
1670354894.199988,-9.371,0.026000000000000002,4.545,-0.6559,-0.3841,0.3809,-0.009000000000000001,0.025,-0.052000000000000005
1670354894.239988,-9.353,0.002,4.497,-0.6504,-0.38280000000000003,0.37370000000000003,-0.01,0.026000000000000002,-0.046
1670354894.279988,-9.341000000000001,0.001,4.541,-0.661,-0.38830000000000003,0.3905,-0.006,0.023,-0.047
1670354894.319988,-9.352,0.049,4.555,-0.6503,-0.3795,0.38170000000000004,0.001,0.02,-0.05
1670354894.359988,-9.354000000000001,0.019,4.566,-0.6566000000000001,-0.3844,0.38580000000000003,0.008,0.025,-0.051000000000000004
1670354894.399988,-9.357,0.029,4.507,-0.6522,-0.3819,0.38170000000000004,0.007,0.024,-0.049
1670354894.439988,-9.356,0.008,4.508,-0.6527000000000001,-0.383,0.3816,0.011,0.014,-0.047
1670354894.479988,-9.346,-0.014,4.546,-0.651,-0.382,0.38070000000000004,0.003,0.022,-0.053
1670354894.519988,-9.349,0.032,4.5,-0.6518,-0.3825,0.38130000000000003,-0.003,0.02,-0.04
1670354894.559988,-9.402000000000001,0.075,4.513,-0.6499,-0.3834,0.3811,0.009000000000000001,0.03,-0.045
1670354894.599988,-9.354000000000001,-0.017,4.513,-0.6503,-0.38330000000000003,0.3809,0.007,0.02,-0.048
1670354894.639988,-9.279,0.054,4.461,-0.6517000000000001,-0.3839,0.3819,0.003,0.021,-0.041
1670354894.679988,-9.377,0.043000000000000003,4.501,-0.6541,-0.3826,0.3803,0.004,0.016,-0.051000000000000004
1670354894.719988,-9.357,0.023,4.533,-0.6502,-0.38380000000000003,0.3816,0.007,0.01,-0.058
1670354894.759988,-9.354000000000001,0.019,4.531,-0.6523,-0.38330000000000003,0.38330000000000003,0.004,0.014,-0.054
1670354894.799988,-9.376,-0.026000000000000002,4.546,-0.6488,-0.3824,0.38120000000000004,-0.005,0.018000000000000002,-0.039
1670354894.839988,-9.363,0.111,4.527,-0.6523,-0.38470000000000004,0.38230000000000003,0.006,0.031,-0.042
1670354894.879988,-9.378,0.011,4.468,-0.6481,-0.38470000000000004,0.3814,0.016,0.036000000000000004,-0.045
1670354894.919988,-9.334,0.05,4.508,-0.6523,-0.38380000000000003,0.38180000000000003,0.015,0.029,-0.044
1670354894.959988,-9.309000000000001,0.058,4.485,-0.6496000000000001,-0.3835,0.3816,0.004,0.024,-0.043000000000000003
1670354894.999988,-9.352,0.068,4.503,-0.6513,-0.3844,0.38070000000000004,0.007,0.015,-0.05
1670354895.039988,-9.364,0.043000000000000003,4.519,-0.6515000000000001,-0.38470000000000004,0.3811,0.006,0.005,-0.057
1670354895.079988,-9.382,0.019,4.534,-0.6531,-0.3825,0.3803,0.001,0.006,-0.058
1670354895.119987,-9.372,0.037,4.507,-0.6521,-0.38170000000000004,0.38170000000000004,-0.002,0.016,-0.05
1670354895.159987,-9.36,0.035,4.539,-0.654,-0.38520000000000004,0.38130000000000003,-0.001,0.02,-0.047
1670354895.199987,-9.346,0.022,4.522,-0.6521,-0.38330000000000003,0.38130000000000003,0.003,0.027,-0.051000000000000004
1670354895.239987,-9.370000000000001,0.023,4.513,-0.6486000000000001,-0.3855,0.3801,0.0,0.024,-0.053
1670354895.279987,-9.358,0.057,4.562,-0.6494,-0.38570000000000004,0.3811,0.004,0.022,-0.05
1670354895.319987,-9.347,0.033,4.524,-0.6498,-0.3834,0.3824,0.004,0.011,-0.05
1670354895.359987,-9.327,0.016,4.533,-0.6507000000000001,-0.38520000000000004,0.3834,0.003,0.012,-0.047
1670354895.399987,-9.385,0.062,4.503,-0.6531,-0.38430000000000003,0.3846,0.006,0.012,-0.045
1670354895.439987,-9.408,0.084,4.527,-0.6507000000000001,-0.38280000000000003,0.3831,0.015,0.02,-0.044
1670354895.479987,-9.326,0.028,4.522,-0.6517000000000001,-0.38580000000000003,0.38270000000000004,0.016,0.026000000000000002,-0.048
1670354895.519987,-9.309000000000001,0.045,4.469,-0.6491,-0.3835,0.379,0.002,0.016,-0.049
1670354895.559987,-9.366,0.041,4.543,-0.6499,-0.38520000000000004,0.38070000000000004,0.0,0.017,-0.045
1670354895.599987,-9.348,0.046,4.557,-0.6495000000000001,-0.3839,0.38170000000000004,0.004,0.009000000000000001,-0.059000000000000004
1670354895.639987,-9.346,0.014,4.5280000000000005,-0.6527000000000001,-0.3849,0.38170000000000004,0.004,0.003,-0.059000000000000004
1670354895.679987,-9.358,-0.013000000000000001,4.503,-0.6532,-0.3845,0.383,-0.004,0.004,-0.048
1670354895.719987,-9.375,0.123,4.534,-0.6518,-0.383,0.3805,0.0,0.009000000000000001,-0.048
1670354895.759987,-9.387,0.061,4.517,-0.6495000000000001,-0.3839,0.3809,0.023,0.02,-0.045
1670354895.799987,-9.31,0.027,4.511,-0.6498,-0.3825,0.3826,0.02,0.024,-0.039
1670354895.839987,-9.311,0.063,4.479,-0.6505000000000001,-0.38520000000000004,0.3814,0.0,0.019,-0.034
1670354895.879987,-9.358,0.088,4.578,-0.6508,-0.38380000000000003,0.3824,0.007,0.01,-0.051000000000000004
1670354895.919987,-9.361,0.039,4.557,-0.6527000000000001,-0.38480000000000003,0.3808,0.01,0.006,-0.057
1670354895.959987,-9.324,0.05,4.526,-0.6478,-0.3849,0.38170000000000004,0.0,0.011,-0.059000000000000004
1670354895.999987,-9.339,0.047,4.513,-0.6541,-0.3835,0.3829,-0.001,0.012,-0.053
1670354896.0399868,-9.35,0.055,4.533,-0.6512,-0.38380000000000003,0.383,-0.004,0.021,-0.05
1670354896.079987,-9.331,0.065,4.524,-0.6505000000000001,-0.38330000000000003,0.38070000000000004,0.007,0.028,-0.056
1670354896.119987,-9.348,0.035,4.546,-0.6526000000000001,-0.38470000000000004,0.3801,0.011,0.033,-0.061
1670354896.159986,-9.355,0.042,4.586,-0.652,-0.387,0.36760000000000004,0.008,0.024,-0.046
1670354896.199986,-9.326,0.043000000000000003,4.519,-0.6543,-0.3855,0.40180000000000005,0.0,0.022,-0.047
1670354896.239986,-9.326,0.112,4.5,-0.656,-0.388,0.39640000000000003,0.01,0.034,-0.056
1670354896.279986,-9.290000000000001,0.112,4.494,-0.656,-0.388,0.39640000000000003,0.012,0.022,-0.058
1670354896.319986,-9.375,0.026000000000000002,4.494,-0.6521,-0.38380000000000003,0.37920000000000004,0.01,0.008,-0.047
1670354896.359986,-9.432,0.012,4.548,-0.665,-0.3891,0.4046,-0.004,0.011,-0.051000000000000004
1670354896.399986,-9.363,0.067,4.466,-0.6519,-0.38480000000000003,0.38820000000000005,0.004,0.022,-0.045
1670354896.439986,-9.338000000000001,0.07200000000000001,4.514,-0.652,-0.385,0.3695,0.005,0.005,-0.052000000000000005
1670354896.479986,-9.326,0.058,4.516,-0.6525000000000001,-0.3836,0.3826,0.012,0.005,-0.065
1670354896.519986,-9.335,0.014,4.514,-0.6532,-0.38530000000000003,0.38280000000000003,-0.002,0.005,-0.051000000000000004
1670354896.559986,-9.344,0.016,4.5760000000000005,-0.6548,-0.38430000000000003,0.38270000000000004,-0.015,0.013000000000000001,-0.057
1670354896.599986,-9.316,0.007,4.556,-0.6505000000000001,-0.3831,0.3821,0.005,0.018000000000000002,-0.044
1670354896.639986,-9.396,0.056,4.582,-0.6524,-0.3844,0.383,0.012,0.022,-0.044
1670354896.679986,-9.36,0.054,4.572,-0.6527000000000001,-0.3831,0.38280000000000003,0.016,0.03,-0.045
1670354896.719986,-9.316,0.035,4.529,-0.653,-0.38420000000000004,0.38370000000000004,0.013000000000000001,0.024,-0.038
1670354896.759986,-9.323,0.05,4.554,-0.6515000000000001,-0.383,0.3826,0.01,0.014,-0.043000000000000003
1670354896.799986,-9.338000000000001,0.098,4.527,-0.6532,-0.386,0.3811,0.014,0.019,-0.055
1670354896.8399858,-9.371,0.0,4.548,-0.6493,-0.382,0.3805,0.003,0.009000000000000001,-0.054
1670354896.879986,-9.307,0.062,4.533,-0.6493,-0.38430000000000003,0.38330000000000003,-0.001,0.01,-0.049
1670354896.919986,-9.347,0.044,4.5,-0.6518,-0.38580000000000003,0.381,-0.001,0.019,-0.051000000000000004
1670354896.959986,-9.371,0.046,4.543,-0.6529,-0.385,0.3819,-0.003,0.025,-0.052000000000000005
1670354896.999986,-9.365,0.041,4.555,-0.6507000000000001,-0.3819,0.37870000000000004,0.0,0.022,-0.059000000000000004
1670354897.039986,-9.336,0.019,4.529,-0.6519,-0.3834,0.3805,0.0,0.02,-0.049
1670354897.0799859,-9.32,0.028,4.529,-0.6538,-0.38420000000000004,0.382,0.0,0.016,-0.047
1670354897.119986,-9.338000000000001,0.07200000000000001,4.566,-0.6524,-0.38420000000000004,0.3815,0.012,0.021,-0.055
1670354897.159986,-9.312,0.022,4.5360000000000005,-0.6505000000000001,-0.3829,0.3799,0.009000000000000001,0.02,-0.054
1670354897.199986,-9.32,-0.025,4.51,-0.6512,-0.3844,0.38280000000000003,0.004,0.018000000000000002,-0.049
1670354897.239986,-9.382,0.028,4.561,-0.6526000000000001,-0.38520000000000004,0.38330000000000003,-0.001,0.018000000000000002,-0.034
1670354897.279985,-9.441,0.099,4.557,-0.6507000000000001,-0.38280000000000003,0.3824,0.012,0.028,-0.056
1670354897.319985,-9.33,0.048,4.442,-0.6571,-0.3875,0.392,0.014,0.021,-0.053
1670354897.359985,-9.32,0.016,4.477,-0.6549,-0.3844,0.38380000000000003,0.008,0.016,-0.054
1670354897.399985,-9.348,0.025,4.516,-0.6555000000000001,-0.3856,0.38420000000000004,-0.004,0.013000000000000001,-0.052000000000000005
1670354897.439985,-9.333,0.067,4.5440000000000005,-0.6539,-0.3824,0.38270000000000004,0.0,0.006,-0.055
1670354897.479985,-9.374,0.026000000000000002,4.572,-0.6518,-0.3845,0.3825,0.003,0.004,-0.055
1670354897.519985,-9.331,-0.017,4.548,-0.6544,-0.3836,0.383,0.001,0.002,-0.055
1670354897.559985,-9.351,0.093,4.533,-0.654,-0.38480000000000003,0.3834,0.011,0.016,-0.049
1670354897.599985,-9.352,0.026000000000000002,4.545,-0.6497,-0.38230000000000003,0.385,0.01,0.018000000000000002,-0.049
1670354897.6399848,-9.325000000000001,0.026000000000000002,4.546,-0.6521,-0.38170000000000004,0.3831,0.016,0.013000000000000001,-0.047
1670354897.679985,-9.32,0.027,4.527,-0.652,-0.3841,0.3794,0.007,0.011,-0.04
1670354897.719985,-9.343,0.077,4.566,-0.6525000000000001,-0.38470000000000004,0.3856,0.012,0.004,-0.046
1670354897.759985,-9.352,0.044,4.564,-0.6505000000000001,-0.38530000000000003,0.38420000000000004,0.018000000000000002,0.0,-0.063
1670354897.799985,-9.339,0.017,4.5680000000000005,-0.6529,-0.38580000000000003,0.3826,0.002,0.011,-0.052000000000000005
1670354897.839985,-9.34,0.02,4.545,-0.6515000000000001,-0.3845,0.3845,-0.006,0.005,-0.043000000000000003
1670354897.8799849,-9.312,0.084,4.543,-0.6524,-0.3844,0.38530000000000003,0.007,0.015,-0.047
1670354897.919985,-9.326,0.03,4.588,-0.6538,-0.3829,0.38120000000000004,0.017,0.023,-0.046
1670354897.959985,-9.337,0.04,4.567,-0.6531,-0.38580000000000003,0.3824,0.006,0.02,-0.046
1670354897.999985,-9.312,0.036000000000000004,4.572,-0.6508,-0.3825,0.3811,0.006,0.014,-0.035
1670354898.039985,-9.298,0.076,4.585,-0.6532,-0.3845,0.383,0.0,0.012,-0.045
1670354898.079985,-9.33,0.049,4.579,-0.6541,-0.3845,0.38280000000000003,0.004,0.013000000000000001,-0.053
1670354898.1199849,-9.297,0.034,4.57,-0.6533,-0.3844,0.38470000000000004,0.005,0.014,-0.048
1670354898.159985,-9.343,0.033,4.571,-0.6537000000000001,-0.38470000000000004,0.3831,0.006,0.012,-0.047
1670354898.199985,-9.289,0.053,4.588,-0.6532,-0.3849,0.385,-0.005,0.01,-0.042
1670354898.239985,-9.290000000000001,0.113,4.531,-0.6542,-0.3846,0.3875,-0.001,0.015,-0.033
1670354898.279985,-9.333,-0.024,4.577,-0.6531,-0.3849,0.3849,0.009000000000000001,0.023,-0.049
1670354898.319984,-9.273,0.084,4.589,-0.6565000000000001,-0.3844,0.3844,-0.001,0.015,-0.057
1670354898.359984,-9.305,0.019,4.567,-0.6577000000000001,-0.38320000000000004,0.38530000000000003,-0.001,0.013000000000000001,-0.05
1670354898.399984,-9.297,0.058,4.572,-0.6536000000000001,-0.3834,0.3955,-0.008,0.007,-0.049
1670354898.4399838,-9.317,0.047,4.616,-0.657,-0.38480000000000003,0.3894,0.003,0.007,-0.056
1670354898.479984,-9.317,0.035,4.6000000000000005,-0.657,-0.3864,0.40700000000000003,0.002,0.016,-0.052000000000000005
1670354898.519984,-9.291,0.035,4.612,-0.6542,-0.3864,0.40700000000000003,-0.008,0.014,-0.047
1670354898.559984,-9.251,0.031,4.612,-0.6557000000000001,-0.38530000000000003,0.3955,0.003,0.023,-0.048
1670354898.599984,-9.379,0.032,4.64,-0.6581,-0.385,0.4171,0.011,0.021,-0.047
1670354898.639984,-9.326,0.061,4.589,-0.6577000000000001,-0.3845,0.387,0.008,0.027,-0.047
1670354898.6799839,-9.287,0.027,4.5840000000000005,-0.6527000000000001,-0.38670000000000004,0.3834,0.003,0.014,-0.041
1670354898.719984,-9.288,0.056,4.597,-0.6521,-0.3834,0.3845,0.008,0.006,-0.049
1670354898.759984,-9.341000000000001,0.06,4.659,-0.6529,-0.38170000000000004,0.38380000000000003,0.011,0.003,-0.061
1670354898.799984,-9.291,0.028,4.597,-0.6549,-0.38570000000000004,0.38420000000000004,0.0,0.009000000000000001,-0.052000000000000005
1670354898.839984,-9.314,0.029,4.572,-0.6526000000000001,-0.38480000000000003,0.38430000000000003,-0.005,0.013000000000000001,-0.045
1670354898.879984,-9.315,0.032,4.625,-0.6552,-0.38420000000000004,0.3846,-0.005,0.024,-0.048
1670354898.9199839,-9.273,0.062,4.61,-0.6575000000000001,-0.3831,0.38270000000000004,0.005,0.011,-0.058
1670354898.959984,-9.279,0.031,4.616,-0.6535000000000001,-0.38370000000000004,0.38120000000000004,0.0,0.01,-0.053
1670354898.999984,-9.307,0.025,4.61,-0.6543,-0.3835,0.38630000000000003,-0.006,0.005,-0.049
1670354899.039984,-9.275,0.042,4.59,-0.654,-0.38530000000000003,0.3849,0.0,0.005,-0.054
1670354899.079984,-9.315,0.04,4.589,-0.6627000000000001,-0.3845,0.39030000000000004,0.006,0.004,-0.051000000000000004
1670354899.119984,-9.278,0.035,4.659,-0.6558,-0.38420000000000004,0.3829,0.012,0.013000000000000001,-0.053
1670354899.1599839,-9.281,0.019,4.634,-0.6637000000000001,-0.38430000000000003,0.3871,0.005,0.012,-0.046
1670354899.199984,-9.273,0.043000000000000003,4.631,-0.6576000000000001,-0.3859,0.3844,0.001,0.013000000000000001,-0.04
1670354899.239984,-9.309000000000001,0.065,4.646,-0.6587000000000001,-0.3834,0.38630000000000003,0.01,0.018000000000000002,-0.035
1670354899.279984,-9.305,-0.025,4.639,-0.6555000000000001,-0.3825,0.3859,0.006,0.027,-0.047
1670354899.319984,-9.241,0.044,4.615,-0.6545000000000001,-0.38320000000000004,0.3844,-0.001,0.022,-0.047
1670354899.359983,-9.304,0.052000000000000005,4.6530000000000005,-0.6549,-0.3864,0.3836,-0.004,0.02,-0.045
1670354899.399983,-9.299,0.057,4.651,-0.6542,-0.3839,0.3856,0.006,0.02,-0.055
1670354899.439983,-9.296,0.035,4.6690000000000005,-0.654,-0.38530000000000003,0.38630000000000003,0.006,0.016,-0.055
1670354899.4799829,-9.272,0.015,4.639,-0.6571,-0.3835,0.3834,0.0,0.023,-0.056
1670354899.519983,-9.239,0.059000000000000004,4.618,-0.6559,-0.3826,0.38630000000000003,0.004,0.018000000000000002,-0.039
1670354899.559983,-9.361,0.01,4.639,-0.6555000000000001,-0.38330000000000003,0.3819,0.008,0.031,-0.043000000000000003
1670354899.599983,-9.282,0.067,4.615,-0.6554,-0.3836,0.382,0.01,0.034,-0.046
1670354899.639983,-9.251,0.042,4.601,-0.6564,-0.38480000000000003,0.38470000000000004,0.001,0.024,-0.034
1670354899.679983,-9.308,0.07100000000000001,4.604,-0.6551,-0.3821,0.3831,0.001,0.015,-0.047
1670354899.7199829,-9.332,0.074,4.618,-0.6564,-0.3845,0.3845,0.014,0.004,-0.063
1670354899.759983,-9.303,-0.001,4.633,-0.6577000000000001,-0.38530000000000003,0.38530000000000003,0.008,0.004,-0.052000000000000005
1670354899.799983,-9.3,0.034,4.603,-0.6577000000000001,-0.38480000000000003,0.3869,-0.002,0.02,-0.047
1670354899.839983,-9.3,0.04,4.611,-0.6557000000000001,-0.3836,0.383,-0.004,0.028,-0.046
1670354899.879983,-9.297,0.049,4.615,-0.6583,-0.385,0.383,-0.005,0.027,-0.042
1670354899.919983,-9.323,0.03,4.66,-0.6544,-0.38070000000000004,0.3836,0.006,0.022,-0.043000000000000003
1670354899.9599829,-9.264,0.028,4.62,-0.6552,-0.3855,0.38170000000000004,0.005,0.018000000000000002,-0.045
1670354899.999983,-9.304,0.073,4.622,-0.6532,-0.3834,0.3839,0.011,0.015,-0.041
1670354900.039983,-9.318,0.07,4.601,-0.6568,-0.3844,0.385,0.011,0.023,-0.046
1670354900.079983,-9.273,0.016,4.604,-0.6542,-0.383,0.3835,-0.006,0.034,-0.045
1670354900.119983,-9.318,0.024,4.639,-0.6562,-0.38630000000000003,0.38370000000000004,-0.005,0.025,-0.029
1670354900.159983,-9.293000000000001,0.083,4.625,-0.6502,-0.38580000000000003,0.3825,0.016,0.006,-0.043000000000000003
1670354900.199983,-9.33,0.134,4.618,-0.6563,-0.3844,0.3831,0.027,0.012,-0.048
1670354900.239983,-9.31,-0.026000000000000002,4.598,-0.6567000000000001,-0.3876,0.38430000000000003,0.024,0.018000000000000002,-0.061
1670354900.279983,-9.233,0.061,4.606,-0.6537000000000001,-0.38580000000000003,0.38470000000000004,0.002,0.016,-0.046
1670354900.319983,-9.296,0.075,4.612,-0.6535000000000001,-0.3845,0.3835,-0.004,0.008,-0.046
1670354900.359983,-9.309000000000001,0.085,4.651,-0.6573,-0.38670000000000004,0.3845,0.008,0.009000000000000001,-0.064
1670354900.399982,-9.288,0.031,4.641,-0.6617000000000001,-0.3861,0.3864,0.001,0.009000000000000001,-0.063
1670354900.439982,-9.274000000000001,0.014,4.6610000000000005,-0.6547000000000001,-0.38420000000000004,0.3836,-0.004,0.014,-0.051000000000000004
1670354900.479982,-9.232,0.108,4.67,-0.6585000000000001,-0.3849,0.3881,-0.011,0.023,-0.047
1670354900.5199819,-9.328,0.0,4.603,-0.6548,-0.3834,0.3834,0.004,0.026000000000000002,-0.053
1670354900.559982,-9.261000000000001,0.062,4.586,-0.6549,-0.38470000000000004,0.3829,0.0,0.039,-0.056
1670354900.599982,-9.264,0.058,4.649,-0.6564,-0.3841,0.3844,-0.003,0.026000000000000002,-0.045
1670354900.639982,-9.261000000000001,0.059000000000000004,4.625,-0.6587000000000001,-0.3841,0.373,-0.003,0.028,-0.049
1670354900.679982,-9.32,0.047,4.658,-0.659,-0.3861,0.38470000000000004,0.007,0.016,-0.058
1670354900.719982,-9.32,0.009000000000000001,4.648,-0.659,-0.3836,0.40130000000000005,0.0,0.016,-0.065
1670354900.7599819,-9.314,0.009000000000000001,4.648,-0.6577000000000001,-0.3836,0.40130000000000005,-0.005,0.023,-0.058
1670354900.799982,-9.318,0.016,4.595,-0.6587000000000001,-0.38280000000000003,0.3688,-0.004,0.024,-0.055
1670354900.839982,-9.291,0.029,4.622,-0.6569,-0.38280000000000003,0.3715,-0.003,0.028,-0.056
1670354900.879982,-9.287,0.052000000000000005,4.59,-0.6577000000000001,-0.38520000000000004,0.38820000000000005,-0.004,0.032,-0.055
1670354900.919982,-9.309000000000001,0.016,4.594,-0.6567000000000001,-0.38570000000000004,0.37670000000000003,-0.001,0.022,-0.052000000000000005
1670354900.959982,-9.292,-0.013000000000000001,4.607,-0.6567000000000001,-0.3851,0.38070000000000004,0.0,0.015,-0.049
1670354900.9999819,-9.312,0.019,4.651,-0.657,-0.38480000000000003,0.383,0.009000000000000001,0.011,-0.05
1670354901.039982,-9.309000000000001,0.026000000000000002,4.573,-0.6566000000000001,-0.3839,0.38280000000000003,0.008,0.018000000000000002,-0.051000000000000004
1670354901.079982,-9.321,0.044,4.615,-0.6575000000000001,-0.3814,0.3846,0.013000000000000001,0.012,-0.048
1670354901.119982,-9.321,-0.002,4.644,-0.6559,-0.38280000000000003,0.38170000000000004,0.0,0.022,-0.048
1670354901.159982,-9.243,-0.013000000000000001,4.6370000000000005,-0.6581,-0.38520000000000004,0.3919,-0.001,0.02,-0.046
1670354901.199982,-9.324,0.04,4.622,-0.6555000000000001,-0.3839,0.3844,0.007,0.015,-0.036000000000000004
1670354901.239982,-9.384,0.055,4.636,-0.6689,-0.3885,0.3881,0.006,0.031,-0.055
1670354901.279982,-9.255,0.036000000000000004,4.573,-0.6557000000000001,-0.38420000000000004,0.383,0.005,0.026000000000000002,-0.058
1670354901.319982,-9.271,0.005,4.524,-0.6592,-0.38330000000000003,0.38880000000000003,-0.001,0.019,-0.047
1670354901.359982,-9.314,0.034,4.655,-0.6572,-0.3871,0.383,0.0,0.012,-0.055
1670354901.399982,-9.290000000000001,0.039,4.605,-0.6621,-0.3836,0.3806,0.003,0.01,-0.054
1670354901.439981,-9.329,-0.009000000000000001,4.633,-0.6566000000000001,-0.38220000000000004,0.385,0.005,0.017,-0.054
1670354901.479981,-9.311,-0.016,4.603,-0.657,-0.38170000000000004,0.38280000000000003,-0.004,0.018000000000000002,-0.043000000000000003
1670354901.519981,-9.349,0.084,4.615,-0.6579,-0.38330000000000003,0.3821,0.009000000000000001,0.025,-0.051000000000000004
1670354901.5599809,-9.339,0.015,4.595,-0.6551,-0.38330000000000003,0.3841,0.009000000000000001,0.023,-0.048
1670354901.599981,-9.306000000000001,-0.005,4.547,-0.6604,-0.38330000000000003,0.3806,0.005,0.018000000000000002,-0.041
1670354901.639981,-9.306000000000001,0.027,4.586,-0.6573,-0.3844,0.38220000000000004,0.002,0.013000000000000001,-0.037
1670354901.679981,-9.294,0.062,4.607,-0.6593,-0.38270000000000004,0.38230000000000003,0.018000000000000002,0.007,-0.055
1670354901.719981,-9.308,0.003,4.647,-0.6555000000000001,-0.383,0.38480000000000003,0.014,0.006,-0.054
1670354901.759981,-9.295,0.007,4.603,-0.6568,-0.3855,0.3839,0.002,0.006,-0.044
1670354901.7999809,-9.309000000000001,0.034,4.607,-0.6574,-0.3841,0.3839,0.0,0.016,-0.041
1670354901.839981,-9.314,0.056,4.6290000000000004,-0.6557000000000001,-0.38220000000000004,0.38270000000000004,0.008,0.012,-0.043000000000000003
1670354901.879981,-9.286,0.036000000000000004,4.607,-0.6571,-0.384,0.38220000000000004,0.013000000000000001,0.014,-0.049
1670354901.919981,-9.312,0.023,4.627,-0.655,-0.3836,0.3835,0.012,0.009000000000000001,-0.047
1670354901.959981,-9.303,0.02,4.6370000000000005,-0.656,-0.3824,0.382,0.008,0.014,-0.043000000000000003
1670354901.999981,-9.276,0.053,4.6290000000000004,-0.6576000000000001,-0.38530000000000003,0.38220000000000004,0.005,0.008,-0.04
1670354902.039981,-9.299,0.022,4.689,-0.6566000000000001,-0.3844,0.38280000000000003,0.002,0.011,-0.036000000000000004
1670354902.079981,-9.309000000000001,0.068,4.647,-0.6571,-0.3831,0.38280000000000003,0.01,0.016,-0.037
1670354902.119981,-9.266,0.043000000000000003,4.634,-0.6563,-0.386,0.3834,0.012,0.022,-0.042
1670354902.159981,-9.26,0.037,4.62,-0.6548,-0.38480000000000003,0.383,0.0,0.025,-0.033
1670354902.199981,-9.306000000000001,0.08700000000000001,4.622,-0.6554,-0.38280000000000003,0.38580000000000003,0.003,0.021,-0.021
1670354902.239981,-9.36,0.049,4.6080000000000005,-0.6568,-0.38530000000000003,0.3831,0.022,0.026000000000000002,-0.046
1670354902.279981,-9.291,0.091,4.627,-0.6564,-0.38730000000000003,0.3801,0.008,0.017,-0.048
1670354902.319981,-9.273,0.028,4.57,-0.6547000000000001,-0.385,0.3874,-0.001,0.011,-0.04
1670354902.359981,-9.328,0.093,4.666,-0.6555000000000001,-0.3844,0.384,-0.003,0.01,-0.048
1670354902.399981,-9.3,0.092,4.656,-0.6619,-0.38520000000000004,0.3814,0.005,0.006,-0.058
1670354902.439981,-9.3,0.033,4.695,-0.6569,-0.38180000000000003,0.38380000000000003,0.003,0.011,-0.058
1670354902.399981,-9.282,0.029,4.63,-0.6571,-0.3835,0.386,-0.003,0.012,-0.053
1670354902.439981,-9.352,0.113,4.647,-0.6573,-0.38670000000000004,0.3841,0.004,0.021,-0.047
1670354902.47998,-9.313,0.075,4.654,-0.656,-0.3854,0.3856,0.009000000000000001,0.029,-0.05
1670354902.51998,-9.26,0.061,4.628,-0.6574,-0.38720000000000004,0.3869,0.004,0.026000000000000002,-0.048
1670354902.55998,-9.272,0.077,4.6370000000000005,-0.6549,-0.38580000000000003,0.3824,-0.003,0.018000000000000002,-0.04
1670354902.5999799,-9.308,0.096,4.6290000000000004,-0.6579,-0.3861,0.38230000000000003,0.003,0.013000000000000001,-0.048
1670354902.63998,-9.278,0.056,4.662,-0.6562,-0.3866,0.3836,0.016,0.013000000000000001,-0.056
1670354902.67998,-9.3,0.035,4.627,-0.6554,-0.3861,0.38280000000000003,0.0,0.014,-0.056
1670354902.71998,-9.291,0.043000000000000003,4.634,-0.6559,-0.38670000000000004,0.3851,0.0,0.016,-0.052000000000000005
1670354902.75998,-9.296,0.051000000000000004,4.618,-0.657,-0.38520000000000004,0.3866,-0.005,0.026000000000000002,-0.051000000000000004
1670354902.79998,-9.290000000000001,0.029,4.668,-0.6562,-0.38370000000000004,0.3884,-0.001,0.023,-0.054
1670354902.83998,-9.267,0.055,4.642,-0.6573,-0.38470000000000004,0.3895,-0.002,0.021,-0.051000000000000004
1670354902.87998,-9.267,0.055,4.643,-0.6573,-0.38470000000000004,0.4002,0.001,0.016,-0.052000000000000005
1670354902.91998,-9.284,0.049,4.643,-0.6573,-0.3841,0.4002,0.008,0.016,-0.048
1670354902.95998,-9.311,0.065,4.63,-0.6576000000000001,-0.38580000000000003,0.4087,0.014,0.016,-0.051000000000000004
1670354902.99998,-9.282,0.038,4.647,-0.6588,-0.38570000000000004,0.3759,0.014,0.013000000000000001,-0.05
1670354903.03998,-9.303,0.003,4.672,-0.6584,-0.3849,0.3714,0.005,0.018000000000000002,-0.04
1670354903.07998,-9.303,0.047,4.665,-0.6635,-0.385,0.38470000000000004,0.009000000000000001,0.025,-0.036000000000000004
1670354903.11998,-9.309000000000001,0.093,4.656,-0.653,-0.38380000000000003,0.38220000000000004,0.006,0.035,-0.054
1670354903.15998,-9.264,-0.008,4.614,-0.6656000000000001,-0.3881,0.392,0.0,0.029,-0.053
1670354903.19998,-9.251,0.074,4.6000000000000005,-0.6553,-0.3866,0.385,-0.007,0.018000000000000002,-0.039
1670354903.23998,-9.309000000000001,0.082,4.627,-0.669,-0.387,0.38480000000000003,-0.001,0.01,-0.05
1670354903.27998,-9.277000000000001,0.08,4.652,-0.656,-0.3834,0.38270000000000004,0.01,0.008,-0.057
1670354903.31998,-9.297,0.028,4.68,-0.6574,-0.3866,0.3895,0.009000000000000001,0.014,-0.051000000000000004
1670354903.35998,-9.285,-0.005,4.627,-0.664,-0.38430000000000003,0.3831,0.002,0.021,-0.045
1670354903.39998,-9.248,0.129,4.616,-0.6618,-0.3874,0.39080000000000004,0.01,0.028,-0.047
1670354903.43998,-9.304,-0.005,4.641,-0.6554,-0.38520000000000004,0.38270000000000004,0.012,0.03,-0.051000000000000004
1670354903.47998,-9.266,0.051000000000000004,4.598,-0.6577000000000001,-0.38620000000000004,0.38430000000000003,0.006,0.027,-0.041
1670354903.519979,-9.267,0.083,4.622,-0.6559,-0.3839,0.383,-0.001,0.015,-0.041
1670354903.559979,-9.287,0.092,4.614,-0.6544,-0.3839,0.3851,0.008,0.01,-0.057
1670354903.599979,-9.285,0.085,4.62,-0.6559,-0.384,0.3856,0.012,0.006,-0.062
1670354903.639979,-9.303,0.053,4.64,-0.657,-0.3841,0.38270000000000004,0.001,0.013000000000000001,-0.053
1670354903.679979,-9.298,0.068,4.614,-0.6575000000000001,-0.38480000000000003,0.3856,0.0,0.019,-0.053
1670354903.719979,-9.283,0.067,4.649,-0.6542,-0.3864,0.3839,0.002,0.021,-0.051000000000000004
1670354903.759979,-9.278,0.062,4.673,-0.6601,-0.38370000000000004,0.3835,0.005,0.025,-0.059000000000000004
1670354903.799979,-9.264,0.054,4.673,-0.6584,-0.3844,0.3829,0.0,0.017,-0.058
1670354903.839979,-9.275,0.038,4.658,-0.6579,-0.3841,0.38380000000000003,0.001,0.015,-0.055
1670354903.879979,-9.266,0.073,4.61,-0.6564,-0.3841,0.3829,0.01,0.016,-0.058
1670354903.919979,-9.284,0.046,4.651,-0.6594,-0.3864,0.38280000000000003,0.003,0.019,-0.058
1670354903.959979,-9.287,0.018000000000000002,4.654,-0.6575000000000001,-0.383,0.3829,-0.002,0.017,-0.049
1670354903.999979,-9.297,0.058,4.663,-0.6573,-0.3836,0.38330000000000003,0.001,0.02,-0.045
1670354904.039979,-9.342,0.134,4.64,-0.6573,-0.3855,0.3836,0.017,0.023,-0.05
1670354904.079979,-9.274000000000001,-0.014,4.631,-0.6591,-0.3866,0.38220000000000004,0.012,0.024,-0.062
1670354904.119979,-9.244,0.058,4.6000000000000005,-0.6559,-0.3825,0.3865,-0.001,0.029,-0.049
1670354904.159979,-9.293000000000001,0.038,4.6770000000000005,-0.6565000000000001,-0.3845,0.3874,-0.012,0.014,-0.044
1670354904.199979,-9.305,0.064,4.695,-0.6554,-0.3844,0.385,-0.001,0.01,-0.06
1670354904.239979,-9.316,0.016,4.673,-0.657,-0.38480000000000003,0.385,0.002,0.017,-0.059000000000000004
1670354904.279979,-9.259,-0.013000000000000001,4.621,-0.6566000000000001,-0.3851,0.38280000000000003,-0.004,0.014,-0.06
1670354904.319979,-9.267,0.093,4.634,-0.6566000000000001,-0.38420000000000004,0.38270000000000004,0.003,0.012,-0.043000000000000003
1670354904.359979,-9.327,0.009000000000000001,4.6530000000000005,-0.6574,-0.3851,0.3831,0.009000000000000001,0.035,-0.045
1670354904.399979,-9.273,0.04,4.598,-0.6542,-0.3864,0.38530000000000003,0.017,0.026000000000000002,-0.045
1670354904.439979,-9.263,0.041,4.613,-0.656,-0.3861,0.385,0.005,0.023,-0.042
1670354904.479979,-9.276,0.066,4.657,-0.6558,-0.386,0.382,0.003,0.01,-0.053
1670354904.519979,-9.287,0.061,4.642,-0.6589,-0.38530000000000003,0.38170000000000004,0.012,0.007,-0.058
1670354904.559978,-9.272,0.008,4.627,-0.6548,-0.3841,0.38630000000000003,0.011,0.007,-0.062
1670354904.599978,-9.299,0.032,4.624,-0.6571,-0.3855,0.38530000000000003,0.001,0.006,-0.055
1670354904.639978,-9.263,0.044,4.627,-0.655,-0.3841,0.3886,0.005,0.016,-0.051000000000000004
1670354904.679978,-9.295,0.039,4.689,-0.6571,-0.3846,0.38320000000000004,0.008,0.019,-0.049
1670354904.719978,-9.283,0.019,4.658,-0.6574,-0.38370000000000004,0.3845,0.009000000000000001,0.018000000000000002,-0.051000000000000004
1670354904.759978,-9.288,0.043000000000000003,4.613,-0.6554,-0.3869,0.3854,-0.001,0.015,-0.042
1670354904.799978,-9.299,0.053,4.663,-0.654,-0.385,0.38480000000000003,0.003,0.02,-0.053
1670354904.839978,-9.264,0.016,4.648,-0.659,-0.3836,0.3834,0.01,0.017,-0.057
1670354904.879978,-9.283,0.019,4.705,-0.656,-0.387,0.3844,0.004,0.025,-0.052000000000000005
1670354904.919978,-9.23,0.063,4.603,-0.6547000000000001,-0.3834,0.383,-0.001,0.02,-0.041
1670354904.959978,-9.296,0.094,4.678,-0.6551,-0.3859,0.38830000000000003,0.0,0.025,-0.04
1670354904.999978,-9.304,-0.013000000000000001,4.5840000000000005,-0.6541,-0.38480000000000003,0.37210000000000004,0.017,0.024,-0.05
1670354905.039978,-9.244,0.063,4.595,-0.6592,-0.3851,0.3617,0.007,0.024,-0.053
1670354905.079978,-9.244,0.041,4.609,-0.6592,-0.3851,0.3708,-0.004,0.013000000000000001,-0.038
1670354905.119978,-9.251,0.041,4.697,-0.6594,-0.3876,0.4086,-0.01,0.006,-0.046
1670354905.159978,-9.261000000000001,0.056,4.697,-0.6696000000000001,-0.38620000000000004,0.4086,0.001,0.004,-0.062
1670354905.199978,-9.278,0.03,4.652,-0.6602,-0.3861,0.37870000000000004,0.001,0.005,-0.056
1670354905.239978,-9.292,-0.013000000000000001,4.751,-0.6615,-0.38380000000000003,0.38980000000000004,0.0,0.01,-0.047
1670354905.279978,-9.261000000000001,0.035,4.649,-0.659,-0.3845,0.3667,0.006,0.016,-0.037
1670354905.319978,-9.323,0.011,4.718,-0.6706000000000001,-0.387,0.3966,0.018000000000000002,0.027,-0.042
1670354905.359978,-9.27,0.056,4.695,-0.6549,-0.385,0.38480000000000003,0.012,0.027,-0.042
1670354905.399978,-9.266,0.038,4.648,-0.6553,-0.3864,0.38830000000000003,0.002,0.018000000000000002,-0.041
1670354905.439978,-9.263,0.077,4.655,-0.6588,-0.3866,0.3846,0.004,0.01,-0.049
1670354905.4799778,-9.290000000000001,0.10300000000000001,4.671,-0.6558,-0.3855,0.3919,0.009000000000000001,0.009000000000000001,-0.055
1670354905.519978,-9.253,0.049,4.658,-0.6573,-0.38520000000000004,0.38370000000000004,-0.001,0.007,-0.049
1670354905.559978,-9.256,0.059000000000000004,4.638,-0.6617000000000001,-0.3855,0.386,-0.004,0.012,-0.049
1670354905.599977,-9.290000000000001,0.061,4.666,-0.6552,-0.38470000000000004,0.3875,-0.005,0.018000000000000002,-0.047
1670354905.639977,-9.261000000000001,0.074,4.658,-0.6594,-0.3866,0.38330000000000003,0.003,0.022,-0.052000000000000005
1670354905.679977,-9.232,0.055,4.666,-0.6576000000000001,-0.385,0.38630000000000003,-0.003,0.021,-0.05
1670354905.719977,-9.242,0.03,4.658,-0.6595000000000001,-0.38380000000000003,0.38580000000000003,0.0,0.015,-0.049
1670354905.759977,-9.238,0.053,4.641,-0.6587000000000001,-0.3869,0.38580000000000003,-0.003,0.008,-0.051000000000000004
1670354905.799977,-9.27,0.047,4.656,-0.657,-0.3845,0.38770000000000004,0.002,0.007,-0.052000000000000005
1670354905.839977,-9.245000000000001,0.052000000000000005,4.682,-0.6581,-0.3849,0.38480000000000003,0.003,0.013000000000000001,-0.059000000000000004
1670354905.879977,-9.256,0.021,4.695,-0.6565000000000001,-0.3851,0.38470000000000004,0.0,0.018000000000000002,-0.049
1670354905.919977,-9.239,0.04,4.728,-0.6615,-0.38670000000000004,0.38570000000000004,-0.001,0.015,-0.042
1670354905.959977,-9.276,0.096,4.708,-0.658,-0.3834,0.38470000000000004,0.011,0.023,-0.038
1670354905.999977,-9.261000000000001,-0.005,4.694,-0.6596000000000001,-0.3855,0.38470000000000004,0.014,0.026000000000000002,-0.059000000000000004
1670354906.039977,-9.185,0.062,4.671,-0.656,-0.38520000000000004,0.388,-0.001,0.019,-0.052000000000000005
1670354906.079977,-9.262,0.056,4.641,-0.658,-0.385,0.3864,-0.007,0.012,-0.039
1670354906.119977,-9.25,0.07,4.704,-0.6582,-0.3865,0.386,0.004,0.005,-0.06
1670354906.159977,-9.256,0.043000000000000003,4.7090000000000005,-0.6572,-0.38330000000000003,0.3861,0.005,0.011,-0.06
1670354906.199977,-9.242,-0.001,4.7,-0.6584,-0.38430000000000003,0.38520000000000004,-0.012,0.009000000000000001,-0.054
1670354906.239977,-9.215,0.055,4.7090000000000005,-0.659,-0.385,0.38520000000000004,-0.001,0.014,-0.038
1670354906.2799768,-9.302,0.0,4.696,-0.6577000000000001,-0.385,0.3859,0.005,0.023,-0.048
1670354906.319977,-9.236,0.07100000000000001,4.694,-0.6563,-0.3826,0.38630000000000003,0.007,0.024,-0.048
1670354906.359977,-9.231,0.044,4.668,-0.6603,-0.3861,0.38470000000000004,0.001,0.019,-0.039
1670354906.399977,-9.25,0.053,4.689,-0.6554,-0.38480000000000003,0.3874,0.001,0.013000000000000001,-0.053
1670354906.439977,-9.261000000000001,0.043000000000000003,4.715,-0.666,-0.38520000000000004,0.3871,0.011,0.007,-0.054
1670354906.479977,-9.232,0.008,4.729,-0.6585000000000001,-0.3846,0.3895,0.003,0.013000000000000001,-0.057
1670354906.5199769,-9.261000000000001,0.032,4.652,-0.6593,-0.3835,0.387,-0.004,0.017,-0.043000000000000003
1670354906.559977,-9.273,0.029,4.668,-0.6573,-0.3835,0.38630000000000003,0.008,0.023,-0.043000000000000003
1670354906.599977,-9.255,0.038,4.692,-0.6582,-0.3854,0.38530000000000003,0.005,0.028,-0.042
1670354906.639977,-9.237,0.061,4.674,-0.6588,-0.3844,0.3844,0.01,0.026000000000000002,-0.043000000000000003
1670354906.679977,-9.238,0.054,4.678,-0.6571,-0.3831,0.38720000000000004,0.008,0.02,-0.049
1670354906.719976,-9.239,0.068,4.703,-0.6583,-0.38370000000000004,0.3816,0.008,0.014,-0.053
1670354906.759976,-9.254,0.058,4.711,-0.6562,-0.38330000000000003,0.3861,0.009000000000000001,0.007,-0.046
1670354906.799976,-9.258000000000001,0.023,4.695,-0.6567000000000001,-0.3825,0.38720000000000004,0.003,0.015,-0.048
1670354906.839976,-9.286,0.044,4.712,-0.6597000000000001,-0.38280000000000003,0.3845,0.003,0.021,-0.041
1670354906.879976,-9.324,0.106,4.691,-0.6575000000000001,-0.38530000000000003,0.38780000000000003,0.012,0.023,-0.042
1670354906.919976,-9.26,0.017,4.691,-0.6571,-0.3864,0.38580000000000003,0.004,0.029,-0.05
1670354906.959976,-9.228,0.074,4.655,-0.6582,-0.3855,0.38580000000000003,0.005,0.023,-0.048
1670354906.999976,-9.281,0.08,4.716,-0.6579,-0.3835,0.3845,0.001,0.017,-0.046
1670354907.039976,-9.244,0.065,4.689,-0.655,-0.384,0.3865,0.001,0.008,-0.057
1670354907.0799758,-9.269,0.029,4.704,-0.6598,-0.383,0.386,-0.005,0.013000000000000001,-0.059000000000000004
1670354907.119976,-9.282,0.007,4.654,-0.6612,-0.38570000000000004,0.384,-0.008,0.012,-0.062
1670354907.159976,-9.314,0.14300000000000002,4.694,-0.6585000000000001,-0.38420000000000004,0.3861,0.0,0.009000000000000001,-0.046
1670354907.199976,-9.307,0.029,4.6690000000000005,-0.6585000000000001,-0.38630000000000003,0.39530000000000004,0.007,0.024,-0.051000000000000004
1670354907.239976,-9.253,0.044,4.67,-0.6573,-0.38720000000000004,0.3815,0.006,0.031,-0.052000000000000005
1670354907.279976,-9.253,0.055,4.666,-0.6573,-0.3841,0.37610000000000005,0.007,0.021,-0.049
1670354907.3199759,-9.223,0.055,4.666,-0.6651,-0.3841,0.37610000000000005,0.005,0.015,-0.046
1670354907.359976,-9.271,0.062,4.671,-0.6587000000000001,-0.385,0.39390000000000003,0.012,0.007,-0.065
1670354907.399976,-9.247,0.027,4.679,-0.6617000000000001,-0.38730000000000003,0.38130000000000003,-0.003,0.01,-0.056
1670354907.439976,-9.275,0.004,4.7010000000000005,-0.6598,-0.3876,0.4093,-0.008,0.012,-0.049
1670354907.479976,-9.265,0.029,4.652,-0.6743,-0.38880000000000003,0.38880000000000003,-0.002,0.018000000000000002,-0.048
1670354907.519976,-9.289,0.073,4.667,-0.6581,-0.38380000000000003,0.38770000000000004,0.0,0.028,-0.054
1670354907.5599759,-9.261000000000001,0.038,4.7090000000000005,-0.6621,-0.38420000000000004,0.38320000000000004,0.008,0.026000000000000002,-0.053
1670354907.599976,-9.252,0.014,4.724,-0.6591,-0.38420000000000004,0.38470000000000004,0.0,0.017,-0.049
1670354907.639976,-9.229000000000001,0.032,4.667,-0.6634,-0.38370000000000004,0.38480000000000003,0.001,0.011,-0.048
1670354907.679976,-9.251,0.045,4.728,-0.659,-0.38430000000000003,0.3826,0.01,0.01,-0.058
1670354907.719976,-9.247,0.05,4.6930000000000005,-0.6593,-0.38220000000000004,0.38520000000000004,0.008,0.014,-0.053
1670354907.759975,-9.23,0.046,4.686,-0.6583,-0.3866,0.3859,0.001,0.009000000000000001,-0.059000000000000004
1670354907.799975,-9.225,0.011,4.6610000000000005,-0.6594,-0.38620000000000004,0.3849,0.003,0.012,-0.053
1670354907.839975,-9.272,0.019,4.723,-0.6595000000000001,-0.3834,0.3861,0.005,0.009000000000000001,-0.044
1670354907.879975,-9.342,0.10400000000000001,4.702,-0.6591,-0.38620000000000004,0.3856,0.008,0.025,-0.058
1670354907.919975,-9.254,0.021,4.666,-0.6541,-0.38470000000000004,0.3831,0.0,0.017,-0.056
1670354907.959975,-9.228,0.017,4.662,-0.6593,-0.3854,0.38620000000000004,-0.007,0.014,-0.047
1670354907.999975,-9.25,0.023,4.67,-0.6589,-0.384,0.38580000000000003,0.0,0.009000000000000001,-0.047
1670354908.039975,-9.239,0.06,4.749,-0.6596000000000001,-0.38380000000000003,0.3836,0.004,0.007,-0.06
1670354908.079975,-9.283,0.001,4.706,-0.6596000000000001,-0.3856,0.3844,0.0,0.018000000000000002,-0.053
1670354908.1199749,-9.233,-0.023,4.722,-0.6599,-0.3859,0.3889,-0.004,0.013000000000000001,-0.049
1670354908.159975,-9.266,0.11,4.659,-0.6616000000000001,-0.38480000000000003,0.385,0.01,0.017,-0.05
1670354908.199975,-9.266,0.028,4.676,-0.6606000000000001,-0.38320000000000004,0.3846,0.012,0.025,-0.054
1670354908.239975,-9.227,0.013000000000000001,4.695,-0.6594,-0.3835,0.3874,0.007,0.023,-0.045
1670354908.279975,-9.217,0.03,4.688,-0.6733,-0.3901,0.3869,0.002,0.012,-0.039
1670354908.319975,-9.248,0.059000000000000004,4.703,-0.6605000000000001,-0.38320000000000004,0.3831,0.008,0.013000000000000001,-0.051000000000000004
1670354908.3599749,-9.257,0.012,4.718,-0.6567000000000001,-0.3845,0.38470000000000004,0.012,0.006,-0.062
1670354908.399975,-9.249,-0.004,4.7540000000000004,-0.6598,-0.38330000000000003,0.383,0.0,0.013000000000000001,-0.052000000000000005
1670354908.439975,-9.248,0.016,4.682,-0.6598,-0.3866,0.3864,-0.008,0.016,-0.046
1670354908.479975,-9.264,0.044,4.688,-0.6599,-0.3854,0.38620000000000004,0.004,0.022,-0.045
1670354908.519975,-9.262,0.022,4.7250000000000005,-0.6591,-0.38520000000000004,0.38520000000000004,0.005,0.029,-0.052000000000000005
1670354908.559975,-9.266,0.005,4.704,-0.6596000000000001,-0.38330000000000003,0.38630000000000003,0.005,0.02,-0.047
1670354908.5999749,-9.248,0.012,4.691,-0.6581,-0.38170000000000004,0.38480000000000003,0.0,0.022,-0.049
1670354908.639975,-9.258000000000001,0.032,4.714,-0.6603,-0.385,0.3834,-0.001,0.015,-0.049
1670354908.679975,-9.266,0.025,4.704,-0.6595000000000001,-0.3851,0.38580000000000003,0.002,0.022,-0.047
1670354908.719975,-9.229000000000001,0.047,4.664,-0.6594,-0.3839,0.3866,0.017,0.034,-0.057
1670354908.759975,-9.27,0.022,4.683,-0.6606000000000001,-0.3859,0.3855,0.014,0.015,-0.041
1670354908.799974,-9.261000000000001,0.0,4.702,-0.6595000000000001,-0.3825,0.3869,-0.001,0.014,-0.046
1670354908.839974,-9.290000000000001,0.057,4.676,-0.6562,-0.3841,0.3874,-0.011,0.012,-0.043000000000000003
1670354908.879974,-9.257,0.052000000000000005,4.71,-0.6602,-0.38570000000000004,0.3834,0.01,0.016,-0.055
1670354908.9199739,-9.25,-0.028,4.716,-0.6586000000000001,-0.3849,0.38530000000000003,0.006,0.007,-0.062
1670354908.959974,-9.285,0.0,4.735,-0.6572,-0.385,0.38920000000000005,-0.008,0.007,-0.046
1670354908.999974,-9.296,0.116,4.751,-0.6574,-0.3856,0.3845,0.005,0.003,-0.034
1670354909.039974,-9.266,-0.005,4.706,-0.6559,-0.38380000000000003,0.38580000000000003,0.012,0.018000000000000002,-0.053
1670354909.079974,-9.224,0.019,4.7,-0.6599,-0.38130000000000003,0.38670000000000004,0.006,0.019,-0.051000000000000004
1670354909.119974,-9.248,0.035,4.726,-0.6596000000000001,-0.3831,0.3874,-0.005,0.012,-0.037
1670354909.1599739,-9.232,0.065,4.706,-0.6593,-0.3849,0.38480000000000003,0.005,0.008,-0.043000000000000003
1670354909.199974,-9.264,0.002,4.7540000000000004,-0.659,-0.3844,0.3864,0.006,0.012,-0.052000000000000005
1670354909.239974,-9.211,-0.011,4.739,-0.659,-0.3866,0.38620000000000004,-0.004,0.011,-0.053
1670354909.279974,-9.205,0.105,4.7330000000000005,-0.6603,-0.38530000000000003,0.38470000000000004,-0.007,0.013000000000000001,-0.041
1670354909.319974,-9.238,-0.006,4.68,-0.6583,-0.3821,0.386,0.005,0.021,-0.048
1670354909.359974,-9.245000000000001,0.037,4.75,-0.6602,-0.3839,0.3856,0.009000000000000001,0.036000000000000004,-0.049
1670354909.3999739,-9.233,0.049,4.746,-0.6591,-0.38630000000000003,0.3836,-0.001,0.025,-0.036000000000000004
1670354909.439974,-9.219,0.08,4.728,-0.6737000000000001,-0.38880000000000003,0.4132,-0.011,0.021,-0.041
1670354909.479974,-9.219,0.052000000000000005,4.756,-0.6737000000000001,-0.38380000000000003,0.3635,0.003,0.016,-0.051000000000000004
1670354909.519974,-9.266,0.052000000000000005,4.716,-0.6591,-0.38380000000000003,0.3635,0.004,0.015,-0.054
1670354909.559974,-9.233,0.016,4.716,-0.6643,-0.3856,0.38480000000000003,-0.004,0.016,-0.047
1670354909.599974,-9.246,0.022,4.671,-0.6646000000000001,-0.38530000000000003,0.38480000000000003,-0.009000000000000001,0.021,-0.051000000000000004
1670354909.6399739,-9.282,0.048,4.695,-0.6587000000000001,-0.3845,0.39690000000000003,-0.008,0.021,-0.049
1670354909.679974,-9.247,0.016,4.681,-0.6602,-0.3841,0.3781,-0.003,0.021,-0.047
1670354909.719974,-9.247,0.034,4.679,-0.6599,-0.3844,0.3864,-0.002,0.018000000000000002,-0.043000000000000003
1670354909.759974,-9.229000000000001,0.036000000000000004,4.719,-0.6565000000000001,-0.3831,0.38720000000000004,0.003,0.011,-0.048
1670354909.799974,-9.223,0.022,4.7170000000000005,-0.6584,-0.383,0.3885,0.009000000000000001,0.0,-0.044
1670354909.839973,-9.247,0.032,4.691,-0.6591,-0.3824,0.38730000000000003,0.01,0.009000000000000001,-0.038
1670354909.879973,-9.278,0.057,4.722,-0.6584,-0.3841,0.3854,0.014,0.011,-0.041
1670354909.919973,-9.223,0.029,4.752,-0.6593,-0.3825,0.3865,0.017,0.009000000000000001,-0.046
1670354909.9599729,-9.206,0.026000000000000002,4.726,-0.659,-0.38480000000000003,0.3855,0.005,0.016,-0.048
1670354909.999973,-9.254,0.052000000000000005,4.745,-0.6584,-0.38380000000000003,0.38580000000000003,0.006,0.022,-0.036000000000000004
1670354910.039973,-9.288,0.088,4.751,-0.6579,-0.3856,0.3886,0.003,0.034,-0.054
1670354910.079973,-9.205,0.028,4.716,-0.6594,-0.3846,0.38480000000000003,0.002,0.027,-0.054
1670354910.119973,-9.188,0.058,4.703,-0.657,-0.3864,0.3869,-0.001,0.022,-0.041
1670354910.159973,-9.266,0.063,4.708,-0.6575000000000001,-0.38420000000000004,0.3889,-0.001,0.019,-0.044
1670354910.1999729,-9.241,0.069,4.758,-0.6609,-0.384,0.3851,0.007,0.019,-0.059000000000000004
1670354910.239973,-9.267,0.011,4.713,-0.6585000000000001,-0.38680000000000003,0.38580000000000003,0.003,0.021,-0.054
1670354910.279973,-9.241,-0.004,4.7010000000000005,-0.6588,-0.3861,0.3856,-0.009000000000000001,0.026000000000000002,-0.042
1670354910.319973,-9.245000000000001,0.12,4.73,-0.6618,-0.3866,0.385,0.013000000000000001,0.029,-0.043000000000000003
1670354910.359973,-9.290000000000001,0.01,4.7,-0.6587000000000001,-0.3861,0.3851,0.013000000000000001,0.032,-0.046
1670354910.399973,-9.256,0.041,4.689,-0.658,-0.38480000000000003,0.3866,0.007,0.025,-0.042
1670354910.4399729,-9.221,0.064,4.718,-0.6583,-0.38570000000000004,0.386,0.0,0.017,-0.031
1670354910.479973,-9.258000000000001,0.094,4.679,-0.6576000000000001,-0.38370000000000004,0.3856,0.012,0.005,-0.05
1670354910.519973,-9.258000000000001,0.073,4.727,-0.6621,-0.3861,0.385,0.018000000000000002,0.005,-0.057
1670354910.559973,-9.248,0.031,4.719,-0.6602,-0.385,0.3875,0.006,0.008,-0.05
1670354910.599973,-9.234,0.049,4.6850000000000005,-0.6598,-0.38580000000000003,0.3902,0.001,0.013000000000000001,-0.039
1670354910.639973,-9.268,0.08600000000000001,4.702,-0.6595000000000001,-0.38530000000000003,0.38980000000000004,0.002,0.025,-0.051000000000000004
1670354910.679973,-9.236,0.06,4.752,-0.6601,-0.3866,0.38370000000000004,0.003,0.021,-0.049
1670354910.719973,-9.22,0.049,4.719,-0.6591,-0.3836,0.38530000000000003,-0.001,0.024,-0.054
1670354910.759973,-9.25,0.061,4.724,-0.6604,-0.3845,0.387,-0.002,0.02,-0.046
1670354910.799973,-9.236,0.073,4.666,-0.6554,-0.38380000000000003,0.3846,-0.004,0.017,-0.051000000000000004
1670354910.839973,-9.278,0.07100000000000001,4.736,-0.657,-0.385,0.38770000000000004,0.01,0.018000000000000002,-0.055
1670354910.879972,-9.244,0.039,4.728,-0.6581,-0.38380000000000003,0.3851,0.006,0.019,-0.049
1670354910.919972,-9.274000000000001,0.029,4.699,-0.6585000000000001,-0.384,0.38730000000000003,0.005,0.015,-0.045
1670354910.959972,-9.261000000000001,0.088,4.728,-0.6577000000000001,-0.3876,0.38680000000000003,0.002,0.01,-0.047
1670354910.9999719,-9.272,0.114,4.686,-0.6569,-0.38730000000000003,0.38720000000000004,0.017,0.016,-0.044
1670354911.039972,-9.241,-0.022,4.683,-0.6592,-0.38480000000000003,0.38370000000000004,0.009000000000000001,0.027,-0.053
1670354911.079972,-9.208,0.084,4.664,-0.6563,-0.385,0.3866,0.0,0.017,-0.048
1670354911.119972,-9.244,0.067,4.655,-0.6599,-0.38520000000000004,0.3859,0.0,0.015,-0.044
1670354911.159972,-9.279,0.098,4.766,-0.6599,-0.3856,0.3864,0.006,0.01,-0.05
1670354911.199972,-9.255,0.058,4.749,-0.6603,-0.38570000000000004,0.38780000000000003,0.004,0.013000000000000001,-0.062
1670354911.2399719,-9.206,0.059000000000000004,4.752,-0.6595000000000001,-0.38430000000000003,0.3849,0.008,0.015,-0.057
1670354911.279972,-9.191,0.07,4.711,-0.6586000000000001,-0.385,0.38420000000000004,0.003,0.025,-0.045
1670354911.319972,-9.296,0.016,4.728,-0.6604,-0.38470000000000004,0.3855,0.01,0.031,-0.045
1670354911.359972,-9.235,0.09,4.745,-0.6591,-0.38380000000000003,0.3854,0.01,0.034,-0.049
1670354911.399972,-9.223,0.062,4.704,-0.6615,-0.38130000000000003,0.38770000000000004,0.003,0.026000000000000002,-0.049
1670354911.439972,-9.251,0.085,4.691,-0.6575000000000001,-0.3841,0.3896,0.0,0.014,-0.05
1670354911.479972,-9.271,0.096,4.736,-0.6547000000000001,-0.385,0.3855,0.008,0.008,-0.052000000000000005
1670354911.519972,-9.246,0.02,4.73,-0.6707000000000001,-0.3874,0.3874,0.007,0.011,-0.067
1670354911.559972,-9.247,0.029,4.689,-0.6589,-0.3831,0.3869,-0.009000000000000001,0.012,-0.05
1670354911.599972,-9.253,0.063,4.704,-0.6608,-0.3856,0.3859,-0.007,0.018000000000000002,-0.05
1670354911.639972,-9.226,0.05,4.749,-0.6593,-0.3844,0.38670000000000004,0.004,0.019,-0.049
1670354911.679972,-9.23,0.041,4.724,-0.6617000000000001,-0.3856,0.3889,0.007,0.026000000000000002,-0.048
1670354911.719972,-9.23,0.041,4.767,-0.6617000000000001,-0.3856,0.36410000000000003,0.011,0.023,-0.051000000000000004
1670354911.759972,-9.25,0.04,4.767,-0.6629,-0.3856,0.36410000000000003,0.001,0.019,-0.054
1670354911.799972,-9.207,0.058,4.7170000000000005,-0.6624,-0.38480000000000003,0.36920000000000003,0.011,0.011,-0.044
1670354911.839972,-9.236,0.06,4.682,-0.6609,-0.3859,0.3849,0.012,0.019,-0.048
1670354911.879972,-9.265,0.075,4.704,-0.6624,-0.3865,0.366,0.011,0.019,-0.05
1670354911.919971,-9.251,0.053,4.746,-0.6588,-0.3855,0.38670000000000004,0.012,0.017,-0.048
1670354911.959971,-9.26,0.031,4.745,-0.6596000000000001,-0.38670000000000004,0.3844,-0.004,0.014,-0.044
1670354911.999971,-9.245000000000001,0.07,4.713,-0.6582,-0.3844,0.3839,-0.006,0.013000000000000001,-0.04
1670354912.0399709,-9.229000000000001,0.139,4.707,-0.66,-0.38520000000000004,0.38530000000000003,0.011,0.019,-0.056
1670354912.079971,-9.251,-0.006,4.726,-0.6595000000000001,-0.38580000000000003,0.387,0.007,0.012,-0.06
1670354912.119971,-9.199,0.082,4.707,-0.6613,-0.3869,0.3854,-0.001,0.02,-0.05
1670354912.159971,-9.229000000000001,0.037,4.703,-0.6595000000000001,-0.38520000000000004,0.3869,-0.005,0.01,-0.055
1670354912.199971,-9.259,0.067,4.758,-0.6604,-0.38320000000000004,0.3846,0.011,0.01,-0.056
1670354912.239971,-9.242,0.04,4.7540000000000004,-0.6605000000000001,-0.38720000000000004,0.38430000000000003,0.012,0.013000000000000001,-0.05
1670354912.279971,-9.23,0.029,4.766,-0.6654,-0.3884,0.38520000000000004,0.0,0.019,-0.051000000000000004
1670354912.319971,-9.203,0.038,4.718,-0.6612,-0.3854,0.3856,0.002,0.019,-0.04
1670354912.359971,-9.269,0.059000000000000004,4.756,-0.6692,-0.38820000000000005,0.396,0.012,0.025,-0.047
1670354912.399971,-9.238,0.077,4.735,-0.6586000000000001,-0.38270000000000004,0.3859,0.013000000000000001,0.019,-0.054
1670354912.439971,-9.237,0.038,4.728,-0.657,-0.38480000000000003,0.3866,0.001,0.018000000000000002,-0.045
1670354912.479971,-9.233,0.09,4.697,-0.6624,-0.388,0.385,0.002,0.014,-0.05
1670354912.519971,-9.278,0.10200000000000001,4.756,-0.6585000000000001,-0.3869,0.38530000000000003,0.0,0.022,-0.051000000000000004
1670354912.559971,-9.191,0.009000000000000001,4.715,-0.6595000000000001,-0.3861,0.3839,0.003,0.006,-0.05
1670354912.599971,-9.26,0.082,4.689,-0.6639,-0.38720000000000004,0.3894,0.015,0.001,-0.058
1670354912.639971,-9.213000000000001,0.055,4.73,-0.6571,-0.38730000000000003,0.39130000000000004,0.014,0.007,-0.053
1670354912.679971,-9.245000000000001,0.035,4.714,-0.6585000000000001,-0.38580000000000003,0.388,0.016,0.015,-0.054
1670354912.719971,-9.232,0.042,4.719,-0.6612,-0.3876,0.3859,0.003,0.01,-0.042
1670354912.759971,-9.22,0.066,4.742,-0.6593,-0.3851,0.3874,0.01,0.009000000000000001,-0.049
1670354912.799971,-9.224,0.068,4.739,-0.6598,-0.3845,0.385,0.011,0.012,-0.058
1670354912.839971,-9.23,0.066,4.752,-0.6606000000000001,-0.3844,0.3859,0.004,0.011,-0.049
1670354912.879971,-9.216000000000001,0.076,4.746,-0.6611,-0.3845,0.3879,0.007,0.012,-0.05
1670354912.919971,-9.217,0.061,4.743,-0.6585000000000001,-0.38630000000000003,0.3886,0.008,0.014,-0.047
1670354912.95997,-9.248,0.073,4.773,-0.6613,-0.3864,0.38680000000000003,0.008,0.016,-0.053
1670354912.99997,-9.221,0.054,4.751,-0.6616000000000001,-0.3869,0.38470000000000004,0.002,0.019,-0.051000000000000004
1670354913.03997,-9.241,0.04,4.727,-0.6604,-0.3849,0.38680000000000003,-0.004,0.015,-0.045
1670354913.07997,-9.187,0.052000000000000005,4.8100000000000005,-0.6608,-0.3831,0.3859,-0.013000000000000001,0.017,-0.048
1670354913.11997,-9.19,0.111,4.728,-0.6596000000000001,-0.38370000000000004,0.38670000000000004,-0.004,0.012,-0.036000000000000004
1670354913.15997,-9.256,0.016,4.742,-0.6615,-0.384,0.39,0.008,0.03,-0.055
1670354913.19997,-9.177,0.092,4.707,-0.66,-0.387,0.38670000000000004,0.005,0.028,-0.054
1670354913.23997,-9.232,0.052000000000000005,4.698,-0.6594,-0.3841,0.3876,-0.009000000000000001,0.023,-0.035
1670354913.27997,-9.227,0.058,4.73,-0.6601,-0.383,0.388,0.0,0.019,-0.046
1670354913.31997,-9.267,0.05,4.779,-0.6593,-0.3861,0.3874,0.004,0.022,-0.056
1670354913.35997,-9.242,0.049,4.753,-0.6606000000000001,-0.3824,0.38520000000000004,0.003,0.016,-0.056
1670354913.39997,-9.221,0.008,4.703,-0.6577000000000001,-0.38330000000000003,0.3889,-0.006,0.018000000000000002,-0.052000000000000005
1670354913.43997,-9.267,0.092,4.721,-0.6613,-0.38420000000000004,0.38530000000000003,0.001,0.025,-0.046
1670354913.47997,-9.229000000000001,0.082,4.764,-0.6622,-0.3861,0.385,0.01,0.028,-0.053
1670354913.51997,-9.208,0.048,4.712,-0.6585000000000001,-0.38280000000000003,0.38830000000000003,0.004,0.02,-0.044
1670354913.55997,-9.217,0.057,4.7,-0.661,-0.38470000000000004,0.38470000000000004,-0.002,0.014,-0.04
1670354913.59997,-9.23,0.095,4.741,-0.661,-0.38620000000000004,0.387,0.008,0.007,-0.049
1670354913.63997,-9.247,0.022,4.746,-0.6698000000000001,-0.38880000000000003,0.3896,0.018000000000000002,0.007,-0.062
1670354913.67997,-9.225,0.033,4.731,-0.6615,-0.3841,0.386,0.002,0.015,-0.051000000000000004
1670354913.71997,-9.221,0.06,4.714,-0.6611,-0.3845,0.38520000000000004,-0.002,0.019,-0.043000000000000003
1670354913.75997,-9.229000000000001,0.054,4.722,-0.6579,-0.38580000000000003,0.3895,0.0,0.02,-0.05
1670354913.79997,-9.221,0.033,4.764,-0.6599,-0.3836,0.38880000000000003,0.001,0.021,-0.054
1670354913.83997,-9.227,0.038,4.759,-0.6623,-0.385,0.3805,-0.004,0.026000000000000002,-0.05
1670354913.87997,-9.229000000000001,0.062,4.713,-0.6594,-0.38280000000000003,0.3614,-0.001,0.015,-0.054
1670354913.91997,-9.229000000000001,0.062,4.73,-0.6594,-0.38280000000000003,0.3899,0.003,0.014,-0.054
1670354913.95997,-9.222,0.048,4.73,-0.662,-0.3846,0.3899,0.001,0.014,-0.052000000000000005
1670354913.999969,-9.225,0.073,4.713,-0.6624,-0.3839,0.3653,0.007,0.012,-0.053
1670354914.039969,-9.228,0.067,4.761,-0.6617000000000001,-0.385,0.37310000000000004,-0.003,0.015,-0.054
1670354914.079969,-9.177,0.029,4.723,-0.6637000000000001,-0.38420000000000004,0.3895,0.0,0.014,-0.05
1670354914.119969,-9.266,0.03,4.74,-0.663,-0.38370000000000004,0.379,0.004,0.013000000000000001,-0.041
1670354914.159969,-9.284,0.084,4.747,-0.66,-0.38470000000000004,0.3836,-0.006,0.027,-0.052000000000000005
1670354914.199969,-9.212,0.019,4.7250000000000005,-0.6604,-0.3841,0.3879,-0.004,0.02,-0.047
1670354914.239969,-9.194,0.046,4.6850000000000005,-0.6604,-0.3844,0.385,-0.003,0.019,-0.043000000000000003
1670354914.279969,-9.221,0.041,4.7700000000000005,-0.6606000000000001,-0.3851,0.38780000000000003,0.0,0.016,-0.051000000000000004
1670354914.319969,-9.22,0.041,4.795,-0.6593,-0.38530000000000003,0.3851,0.009000000000000001,0.008,-0.053
1670354914.359969,-9.26,0.013000000000000001,4.75,-0.6635,-0.3859,0.39080000000000004,0.005,0.016,-0.053
1670354914.399969,-9.227,-0.007,4.779,-0.6618,-0.38330000000000003,0.38630000000000003,0.0,0.018000000000000002,-0.04
1670354914.439969,-9.25,0.097,4.764,-0.6673,-0.38770000000000004,0.3965,0.012,0.029,-0.048
1670354914.479969,-9.251,0.037,4.743,-0.6621,-0.3866,0.38820000000000005,0.008,0.028,-0.047
1670354914.519969,-9.199,0.017,4.738,-0.669,-0.38630000000000003,0.3886,0.008,0.024,-0.042
1670354914.559969,-9.205,0.052000000000000005,4.724,-0.6588,-0.3836,0.3894,0.004,0.016,-0.038
1670354914.599969,-9.227,0.07200000000000001,4.728,-0.6597000000000001,-0.3856,0.3871,0.003,0.002,-0.061
1670354914.639969,-9.242,0.037,4.761,-0.6674,-0.38380000000000003,0.38830000000000003,0.011,0.008,-0.054
1670354914.679969,-9.217,0.02,4.761,-0.6645,-0.38330000000000003,0.3879,-0.001,0.013000000000000001,-0.044
1670354914.719969,-9.207,0.051000000000000004,4.728,-0.6612,-0.3856,0.38670000000000004,0.001,0.026000000000000002,-0.046
1670354914.759969,-9.241,0.046,4.774,-0.6631,-0.38380000000000003,0.3874,0.009000000000000001,0.026000000000000002,-0.048
1670354914.799969,-9.233,0.052000000000000005,4.7540000000000004,-0.6602,-0.3856,0.38670000000000004,0.003,0.033,-0.05
1670354914.839969,-9.226,0.044,4.781,-0.6626000000000001,-0.3846,0.386,-0.002,0.021,-0.045
1670354914.879969,-9.232,0.062,4.734,-0.6596000000000001,-0.3844,0.3885,0.006,0.02,-0.052000000000000005
1670354914.9199688,-9.203,0.048,4.7250000000000005,-0.6559,-0.38670000000000004,0.38880000000000003,0.001,0.017,-0.054
1670354914.959969,-9.221,0.024,4.752,-0.659,-0.38270000000000004,0.3859,0.001,0.016,-0.048
1670354914.999969,-9.22,0.073,4.751,-0.6613,-0.38480000000000003,0.3841,0.002,0.014,-0.054
1670354915.039968,-9.266,0.083,4.753,-0.659,-0.38480000000000003,0.38520000000000004,0.009000000000000001,0.01,-0.044
1670354915.079968,-9.26,0.005,4.749,-0.6595000000000001,-0.3854,0.3895,0.012,0.031,-0.049
1670354915.119968,-9.176,0.078,4.719,-0.6601,-0.3864,0.3855,0.0,0.022,-0.052000000000000005
1670354915.159968,-9.226,0.044,4.745,-0.6583,-0.3866,0.38580000000000003,0.001,0.021,-0.05
1670354915.199968,-9.211,0.058,4.738,-0.6588,-0.3841,0.3855,0.001,0.015,-0.054
1670354915.239968,-9.244,0.039,4.742,-0.6624,-0.38480000000000003,0.3866,-0.003,0.02,-0.061
1670354915.279968,-9.203,0.046,4.728,-0.6614,-0.3855,0.3855,-0.002,0.021,-0.058
1670354915.319968,-9.17,0.056,4.756,-0.6595000000000001,-0.38530000000000003,0.3874,-0.003,0.022,-0.044
1670354915.359968,-9.286,0.031,4.749,-0.6604,-0.38530000000000003,0.3845,0.01,0.035,-0.053
1670354915.399968,-9.24,0.077,4.735,-0.6592,-0.3846,0.3844,0.017,0.036000000000000004,-0.05
1670354915.439968,-9.226,0.051000000000000004,4.7090000000000005,-0.6611,-0.3839,0.3861,0.003,0.031,-0.042
1670354915.479968,-9.221,0.077,4.715,-0.6587000000000001,-0.3856,0.38420000000000004,0.003,0.015,-0.046
1670354915.519968,-9.248,0.082,4.7330000000000005,-0.6621,-0.3866,0.38570000000000004,0.011,0.008,-0.063
1670354915.559968,-9.223,0.015,4.752,-0.6598,-0.385,0.3894,0.004,0.007,-0.06
1670354915.599968,-9.251,0.044,4.745,-0.6612,-0.3855,0.3854,-0.005,0.008,-0.052000000000000005
1670354915.639968,-9.237,0.044,4.723,-0.6638000000000001,-0.3871,0.38920000000000005,-0.005,0.015,-0.051000000000000004
1670354915.679968,-9.245000000000001,0.048,4.74,-0.6681,-0.3865,0.387,0.003,0.02,-0.051000000000000004
1670354915.719968,-9.208,0.041,4.749,-0.6598,-0.38480000000000003,0.3849,0.004,0.025,-0.051000000000000004
1670354915.759968,-9.232,0.023,4.738,-0.6622,-0.3844,0.38670000000000004,0.002,0.021,-0.051000000000000004
1670354915.799968,-9.224,0.065,4.7170000000000005,-0.6581,-0.3834,0.38830000000000003,0.007,0.019,-0.056
1670354915.839968,-9.22,0.04,4.723,-0.6612,-0.3859,0.388,0.009000000000000001,0.012,-0.056
1670354915.879968,-9.238,0.001,4.73,-0.6601,-0.38330000000000003,0.3841,-0.001,0.017,-0.057
1670354915.919968,-9.247,0.037,4.751,-0.6615,-0.3834,0.38580000000000003,0.001,0.006,-0.051000000000000004
1670354915.9599679,-9.299,0.126,4.7700000000000005,-0.6602,-0.3844,0.3865,0.012,0.011,-0.032
1670354915.999968,-9.235,-0.036000000000000004,4.687,-0.6624,-0.38680000000000003,0.386,0.015,0.024,-0.055
1670354916.039968,-9.224,0.043000000000000003,4.706,-0.6612,-0.3846,0.38880000000000003,0.005,0.023,-0.054
1670354916.079967,-9.22,0.031,4.734,-0.6637000000000001,-0.3856,0.3836,-0.002,0.017,-0.044
1670354916.119967,-9.22,0.051000000000000004,4.769,-0.6637000000000001,-0.3856,0.40990000000000004,0.0,0.011,-0.056
1670354916.159967,-9.229000000000001,0.051000000000000004,4.769,-0.6645,-0.3856,0.40990000000000004,0.004,0.008,-0.059000000000000004
1670354916.199967,-9.264,0.023,4.745,-0.6592,-0.38330000000000003,0.38330000000000003,0.0,0.017,-0.055
1670354916.239967,-9.181000000000001,0.001,4.756,-0.6628000000000001,-0.38420000000000004,0.3765,-0.004,0.019,-0.056
1670354916.279967,-9.196,0.08,4.748,-0.6632,-0.38830000000000003,0.4077,0.005,0.022,-0.049
1670354916.319967,-9.251,0.001,4.7250000000000005,-0.6609,-0.3856,0.3826,0.016,0.021,-0.051000000000000004
1670354916.359967,-9.243,0.036000000000000004,4.712,-0.6608,-0.3885,0.3765,0.008,0.018000000000000002,-0.044
1670354916.399967,-9.224,0.038,4.702,-0.6621,-0.38380000000000003,0.3851,0.004,0.015,-0.045
1670354916.439967,-9.233,0.056,4.721,-0.662,-0.385,0.3916,0.008,0.005,-0.057
1670354916.479967,-9.238,0.049,4.772,-0.6584,-0.3831,0.38630000000000003,0.004,0.005,-0.068
1670354916.519967,-9.207,-0.002,4.7620000000000005,-0.6764,-0.3899,0.3946,-0.003,0.006,-0.056
1670354916.559967,-9.234,0.014,4.755,-0.6607000000000001,-0.383,0.38830000000000003,-0.005,0.016,-0.048
1670354916.599967,-9.226,0.043000000000000003,4.777,-0.6631,-0.38480000000000003,0.3891,0.009000000000000001,0.023,-0.05
1670354916.639967,-9.247,0.027,4.801,-0.6628000000000001,-0.3806,0.3844,0.007,0.023,-0.055
1670354916.679967,-9.22,0.025,4.743,-0.6638000000000001,-0.3809,0.3865,0.007,0.025,-0.043000000000000003
1670354916.719967,-9.200000000000001,0.017,4.742,-0.6598,-0.3846,0.38780000000000003,0.0,0.019,-0.047
1670354916.7599669,-9.245000000000001,0.035,4.744,-0.6585000000000001,-0.38320000000000004,0.3845,0.0,0.016,-0.039
1670354916.799967,-9.206,0.068,4.758,-0.6618,-0.38330000000000003,0.38520000000000004,0.003,0.016,-0.041
1670354916.839967,-9.244,0.04,4.735,-0.6624,-0.38530000000000003,0.3874,0.008,0.022,-0.046
1670354916.879967,-9.241,0.062,4.748,-0.6637000000000001,-0.386,0.38630000000000003,0.008,0.029,-0.045
1670354916.919967,-9.206,0.036000000000000004,4.76,-0.6604,-0.38530000000000003,0.38620000000000004,0.007,0.023,-0.05
1670354916.959967,-9.22,0.007,4.724,-0.6636000000000001,-0.38270000000000004,0.3866,-0.006,0.01,-0.046
1670354916.9999669,-9.264,0.049,4.751,-0.6598,-0.3856,0.38720000000000004,-0.002,0.016,-0.045
1670354917.039967,-9.287,0.111,4.722,-0.6613,-0.38730000000000003,0.38520000000000004,0.009000000000000001,0.021,-0.059000000000000004
1670354917.079967,-9.215,-0.008,4.689,-0.6627000000000001,-0.38480000000000003,0.3861,0.004,0.015,-0.057
1670354917.119967,-9.22,0.023,4.718,-0.6613,-0.3841,0.38630000000000003,-0.006,0.015,-0.049
1670354917.159967,-9.224,0.044,4.761,-0.6609,-0.3841,0.38920000000000005,-0.006,0.01,-0.048
1670354917.199966,-9.217,0.073,4.7700000000000005,-0.6618,-0.3836,0.3909,0.016,0.008,-0.052000000000000005
1670354917.239966,-9.245000000000001,0.026000000000000002,4.727,-0.6609,-0.3856,0.3894,0.013000000000000001,0.009000000000000001,-0.045
1670354917.279966,-9.205,-0.014,4.785,-0.6605000000000001,-0.3841,0.3886,0.002,0.017,-0.047
1670354917.319966,-9.22,0.098,4.7330000000000005,-0.661,-0.386,0.3871,0.0,0.023,-0.038
1670354917.359966,-9.244,0.01,4.715,-0.6627000000000001,-0.3859,0.38670000000000004,0.008,0.025,-0.047
1670354917.399966,-9.208,0.052000000000000005,4.73,-0.6588,-0.38420000000000004,0.387,0.012,0.025,-0.056
1670354917.439966,-9.195,0.05,4.7090000000000005,-0.6581,-0.38630000000000003,0.3844,0.004,0.018000000000000002,-0.043000000000000003
1670354917.479966,-9.229000000000001,0.067,4.752,-0.6597000000000001,-0.3851,0.3864,0.003,0.019,-0.05
1670354917.519966,-9.232,0.037,4.736,-0.6604,-0.38530000000000003,0.3845,0.001,0.019,-0.055
1670354917.5599658,-9.229000000000001,0.027,4.756,-0.6606000000000001,-0.383,0.38670000000000004,-0.001,0.019,-0.052000000000000005
1670354917.599966,-9.21,0.037,4.761,-0.6581,-0.3845,0.38930000000000003,-0.003,0.016,-0.049
1670354917.639966,-9.228,0.044,4.729,-0.6622,-0.385,0.3859,0.004,0.024,-0.043000000000000003
1670354917.679966,-9.242,0.04,4.761,-0.6579,-0.38480000000000003,0.3901,0.001,0.03,-0.043000000000000003
1670354917.719966,-9.242,0.019,4.773,-0.6616000000000001,-0.3876,0.39080000000000004,-0.001,0.027,-0.051000000000000004
1670354917.759966,-9.227,0.046,4.712,-0.661,-0.3839,0.38780000000000003,-0.002,0.025,-0.051000000000000004
1670354917.7999659,-9.214,0.069,4.7250000000000005,-0.6606000000000001,-0.3836,0.38620000000000004,-0.006,0.022,-0.046
1670354917.839966,-9.247,0.054,4.706,-0.6593,-0.38280000000000003,0.3855,0.007,0.016,-0.048
1670354917.879966,-9.238,0.059000000000000004,4.746,-0.6602,-0.3834,0.38720000000000004,0.007,0.014,-0.048
1670354917.919966,-9.239,0.017,4.774,-0.6601,-0.3819,0.385,0.001,0.022,-0.044
1670354917.959966,-9.225,0.0,4.694,-0.6581,-0.3836,0.3885,-0.002,0.02,-0.051000000000000004
1670354917.999966,-9.242,0.047,4.73,-0.661,-0.3841,0.3875,0.0,0.012,-0.048
1670354918.0399659,-9.285,0.058,4.7540000000000004,-0.6631,-0.385,0.38770000000000004,-0.001,0.02,-0.044
1670354918.079966,-9.22,-0.016,4.745,-0.6617000000000001,-0.38480000000000003,0.3859,-0.003,0.026000000000000002,-0.055
1670354918.119966,-9.172,0.035,4.699,-0.6591,-0.3831,0.3881,0.0,0.02,-0.052000000000000005
1670354918.159966,-9.244,0.059000000000000004,4.748,-0.6621,-0.384,0.3849,0.002,0.019,-0.038
1670354918.199966,-9.245000000000001,0.052000000000000005,4.741,-0.6582,-0.3839,0.3874,0.015,0.012,-0.054
1670354918.239965,-9.236,0.02,4.738,-0.6592,-0.3855,0.38670000000000004,0.019,0.012,-0.053
1670354918.279965,-9.223,0.01,4.7250000000000005,-0.6617000000000001,-0.38480000000000003,0.3966,0.007,0.014,-0.049
1670354918.319965,-9.217,0.101,4.768,-0.6624,-0.38670000000000004,0.3638,0.0,0.014,-0.038
1670354918.3599648,-9.217,0.101,4.758,-0.6624,-0.38670000000000004,0.3629,0.013000000000000001,0.027,-0.043000000000000003
1670354918.399965,-9.25,-0.01,4.72,-0.6596000000000001,-0.383,0.3629,0.011,0.027,-0.05
1670354918.439965,-9.205,0.06,4.72,-0.6747000000000001,-0.38430000000000003,0.3859,0.001,0.023,-0.035
1670354918.479965,-9.211,0.044,4.731,-0.664,-0.38670000000000004,0.3841,0.0,0.017,-0.047
1670354918.519965,-9.23,0.07200000000000001,4.716,-0.6624,-0.384,0.398,0.009000000000000001,0.014,-0.057
1670354918.559965,-9.237,0.068,4.756,-0.6582,-0.3859,0.39030000000000004,0.007,0.01,-0.054
1670354918.5999649,-9.245000000000001,0.033,4.759,-0.6712,-0.3904,0.3947,0.0,0.013000000000000001,-0.046
1670354918.639965,-9.239,0.057,4.74,-0.6581,-0.3855,0.386,0.0,0.02,-0.053
1670354918.679965,-9.263,0.044,4.751,-0.6739,-0.3874,0.3856,0.004,0.028,-0.049
1670354918.719965,-9.233,0.025,4.763,-0.6617000000000001,-0.3854,0.3891,0.004,0.031,-0.049
1670354918.759965,-9.214,0.044,4.682,-0.6602,-0.38580000000000003,0.385,0.001,0.024,-0.052000000000000005
1670354918.799965,-9.227,0.037,4.736,-0.6601,-0.38470000000000004,0.3851,0.003,0.016,-0.049
1670354918.8399649,-9.215,0.061,4.738,-0.6596000000000001,-0.3841,0.3869,0.005,0.013000000000000001,-0.058
1670354918.879965,-9.241,0.047,4.706,-0.6601,-0.38570000000000004,0.3874,0.008,0.006,-0.052000000000000005
1670354918.919965,-9.226,0.04,4.759,-0.6611,-0.38780000000000003,0.38620000000000004,0.012,0.017,-0.052000000000000005
1670354918.959965,-9.264,0.032,4.763,-0.6597000000000001,-0.3839,0.38480000000000003,0.001,0.016,-0.046
1670354918.999965,-9.204,0.065,4.737,-0.659,-0.3825,0.38430000000000003,0.0,0.017,-0.045
1670354919.039965,-9.223,0.08600000000000001,4.694,-0.6581,-0.3836,0.3866,0.011,0.021,-0.046
1670354919.0799649,-9.274000000000001,0.0,4.745,-0.661,-0.3846,0.38630000000000003,0.009000000000000001,0.021,-0.056
1670354919.119965,-9.172,0.089,4.741,-0.6564,-0.3849,0.3881,-0.001,0.017,-0.049
1670354919.159965,-9.223,0.035,4.718,-0.6581,-0.38520000000000004,0.38720000000000004,-0.005,0.017,-0.05
1670354919.199965,-9.24,0.049,4.729,-0.6591,-0.384,0.3856,0.006,0.007,-0.058
1670354919.239965,-9.256,0.031,4.772,-0.6576000000000001,-0.38670000000000004,0.3875,0.006,0.013000000000000001,-0.057
1670354919.279964,-9.23,0.043000000000000003,4.759,-0.6596000000000001,-0.3845,0.3876,0.002,0.012,-0.057
1670354919.319964,-9.193,0.033,4.736,-0.6607000000000001,-0.38280000000000003,0.38630000000000003,-0.002,0.014,-0.04
1670354919.359964,-9.276,0.047,4.75,-0.66,-0.3825,0.3856,0.009000000000000001,0.023,-0.05
1670354919.3999639,-9.26,0.067,4.773,-0.6666000000000001,-0.3864,0.3909,0.008,0.027,-0.054
1670354919.439964,-9.199,0.035,4.7170000000000005,-0.6635,-0.38480000000000003,0.38530000000000003,0.004,0.022,-0.042
1670354919.479964,-9.211,0.068,4.743,-0.6587000000000001,-0.3844,0.3876,0.004,0.007,-0.049
1670354919.519964,-9.236,0.059000000000000004,4.716,-0.6585000000000001,-0.3839,0.38720000000000004,0.008,0.006,-0.061
1670354919.559964,-9.223,0.018000000000000002,4.748,-0.6605000000000001,-0.3844,0.38480000000000003,0.003,0.005,-0.06
1670354919.599964,-9.228,0.019,4.7540000000000004,-0.6607000000000001,-0.3869,0.38870000000000005,-0.005,0.009000000000000001,-0.051000000000000004
1670354919.6399639,-9.203,0.038,4.728,-0.6592,-0.3826,0.38880000000000003,-0.005,0.016,-0.045
1670354919.679964,-9.224,0.047,4.752,-0.661,-0.38580000000000003,0.386,0.006,0.023,-0.056
1670354919.719964,-9.253,0.018000000000000002,4.755,-0.6581,-0.38370000000000004,0.3875,0.007,0.022,-0.053
1670354919.759964,-9.221,0.013000000000000001,4.765,-0.6588,-0.38380000000000003,0.3886,0.0,0.019,-0.047
1670354919.799964,-9.217,0.028,4.76,-0.6598,-0.38430000000000003,0.3855,0.003,0.02,-0.047
1670354919.839964,-9.225,0.039,4.779,-0.6599,-0.3846,0.3866,0.008,0.015,-0.047
1670354919.8799639,-9.223,0.047,4.789,-0.6622,-0.3855,0.3895,0.013000000000000001,0.011,-0.042
1670354919.919964,-9.238,0.039,4.752,-0.6589,-0.3845,0.3875,0.013000000000000001,0.024,-0.048
1670354919.959964,-9.206,0.023,4.751,-0.6573,-0.3846,0.38780000000000003,0.009000000000000001,0.018000000000000002,-0.053
1670354919.999964,-9.226,0.018000000000000002,4.728,-0.6588,-0.38530000000000003,0.3885,0.003,0.02,-0.049
1670354920.039964,-9.223,0.048,4.755,-0.6624,-0.383,0.388,-0.007,0.011,-0.051000000000000004
1670354920.079964,-9.217,0.11,4.765,-0.6586000000000001,-0.38520000000000004,0.386,0.0,0.016,-0.045
1670354920.119964,-9.237,-0.04,4.749,-0.6601,-0.384,0.391,0.006,0.022,-0.056
1670354920.159964,-9.159,0.055,4.734,-0.6606000000000001,-0.3864,0.38880000000000003,0.001,0.017,-0.051000000000000004
1670354920.199964,-9.221,0.013000000000000001,4.755,-0.6587000000000001,-0.38280000000000003,0.387,-0.003,0.012,-0.041
1670354920.239964,-9.224,0.053,4.7700000000000005,-0.6602,-0.3845,0.3889,-0.003,0.019,-0.05
1670354920.279964,-9.218,0.029,4.785,-0.6608,-0.3841,0.3869,0.01,0.012,-0.054
1670354920.319963,-9.213000000000001,0.005,4.7860000000000005,-0.6654,-0.3884,0.3917,0.005,0.019,-0.053
1670354920.359963,-9.173,0.022,4.744,-0.6614,-0.3836,0.3884,-0.004,0.019,-0.045
1670354920.399963,-9.264,0.035,4.789,-0.6637000000000001,-0.383,0.38920000000000005,0.001,0.025,-0.047
1670354920.4399629,-9.223,0.076,4.759,-0.6591,-0.38520000000000004,0.387,0.009000000000000001,0.028,-0.052000000000000005
1670354920.479963,-9.178,0.038,4.746,-0.6586000000000001,-0.3849,0.38630000000000003,0.009000000000000001,0.021,-0.048
1670354920.519963,-9.206,0.049,4.78,-0.6591,-0.3871,0.4011,0.004,0.018000000000000002,-0.049
1670354920.559963,-9.242,0.07100000000000001,4.767,-0.6604,-0.38530000000000003,0.41300000000000003,0.008,0.005,-0.054
1670354920.599963,-9.242,0.07100000000000001,4.769,-0.6604,-0.38530000000000003,0.3774,0.012,0.009000000000000001,-0.058
1670354920.639963,-9.203,0.031,4.769,-0.6598,-0.3845,0.3774,0.003,0.007,-0.051000000000000004
1670354920.6799629,-9.191,0.027,4.761,-0.6676000000000001,-0.3869,0.41550000000000004,-0.006,0.015,-0.044
1670354920.719963,-9.202,0.032,4.753,-0.6604,-0.38420000000000004,0.3986,-0.002,0.023,-0.046
1670354920.759963,-9.233,0.059000000000000004,4.773,-0.6675,-0.388,0.3875,0.0,0.021,-0.053
1670354920.799963,-9.209,0.019,4.808,-0.662,-0.38530000000000003,0.3901,-0.002,0.025,-0.045
1670354920.839963,-9.214,0.028,4.771,-0.6582,-0.38530000000000003,0.38670000000000004,0.003,0.018000000000000002,-0.05
1670354920.879963,-9.221,0.044,4.783,-0.6607000000000001,-0.38780000000000003,0.3899,0.01,0.012,-0.045
1670354920.919963,-9.209,0.03,4.774,-0.6631,-0.38380000000000003,0.3891,0.011,0.008,-0.042
1670354920.959963,-9.229000000000001,0.034,4.759,-0.6582,-0.3826,0.38880000000000003,0.011,0.012,-0.046
1670354920.999963,-9.221,0.034,4.767,-0.66,-0.38420000000000004,0.38880000000000003,0.008,0.015,-0.049
1670354921.039963,-9.178,0.052000000000000005,4.76,-0.6599,-0.3814,0.38680000000000003,0.003,0.02,-0.049
1670354921.079963,-9.200000000000001,0.037,4.78,-0.6589,-0.38770000000000004,0.38780000000000003,0.0,0.018000000000000002,-0.045
1670354921.119963,-9.19,0.041,4.766,-0.6604,-0.38280000000000003,0.38670000000000004,0.005,0.012,-0.046
1670354921.159963,-9.236,0.064,4.767,-0.6593,-0.384,0.38920000000000005,0.006,0.024,-0.043000000000000003
1670354921.199963,-9.248,0.0,4.823,-0.6599,-0.382,0.3889,0.016,0.039,-0.045
1670354921.239963,-9.153,0.064,4.74,-0.6623,-0.3835,0.3874,0.007,0.018000000000000002,-0.051000000000000004
1670354921.279963,-9.205,0.031,4.719,-0.6604,-0.38530000000000003,0.3902,-0.003,0.01,-0.038
1670354921.319963,-9.241,0.023,4.7330000000000005,-0.6591,-0.38420000000000004,0.38920000000000005,-0.001,0.011,-0.047
1670354921.359962,-9.227,0.068,4.772,-0.6608,-0.3831,0.3881,0.004,0.005,-0.055
1670354921.399962,-9.214,0.05,4.758,-0.6614,-0.3844,0.38870000000000005,-0.001,0.009000000000000001,-0.064
1670354921.439962,-9.17,0.022,4.752,-0.6613,-0.3841,0.3912,0.005,0.018000000000000002,-0.043000000000000003
1670354921.4799619,-9.278,0.032,4.769,-0.66,-0.38470000000000004,0.3866,0.006,0.029,-0.047
1670354921.519962,-9.191,0.057,4.767,-0.6601,-0.3851,0.38670000000000004,0.01,0.024,-0.052000000000000005
1670354921.559962,-9.172,0.023,4.78,-0.66,-0.3855,0.38720000000000004,0.005,0.013000000000000001,-0.035
1670354921.599962,-9.216000000000001,0.046,4.771,-0.6615,-0.3871,0.387,0.004,0.005,-0.041
1670354921.639962,-9.229000000000001,0.064,4.748,-0.6613,-0.38820000000000005,0.39080000000000004,0.01,0.003,-0.051000000000000004
1670354921.679962,-9.217,0.032,4.809,-0.6598,-0.385,0.3881,0.011,0.009000000000000001,-0.054
1670354921.719962,-9.234,0.038,4.779,-0.6657000000000001,-0.388,0.38920000000000005,0.004,0.018000000000000002,-0.049
1670354921.759962,-9.224,0.047,4.743,-0.6664,-0.3856,0.38880000000000003,0.0,0.031,-0.041
1670354921.799962,-9.218,0.07100000000000001,4.761,-0.6579,-0.38470000000000004,0.3902,0.006,0.029,-0.049
1670354921.839962,-9.196,0.05,4.793,-0.659,-0.3874,0.3854,0.004,0.023,-0.048
1670354921.879962,-9.22,0.03,4.785,-0.6591,-0.3846,0.3907,-0.003,0.019,-0.049
1670354921.919962,-9.214,0.055,4.777,-0.6607000000000001,-0.38480000000000003,0.3911,0.0,0.013000000000000001,-0.05
1670354921.959962,-9.199,0.061,4.74,-0.6584,-0.38530000000000003,0.3896,0.001,0.015,-0.048
1670354921.999962,-9.24,0.05,4.7620000000000005,-0.661,-0.38420000000000004,0.3881,0.009000000000000001,0.015,-0.054
1670354922.039962,-9.223,0.031,4.787,-0.6601,-0.38530000000000003,0.3879,0.001,0.019,-0.051000000000000004
1670354922.079962,-9.222,0.028,4.795,-0.6595000000000001,-0.389,0.38770000000000004,0.0,0.018000000000000002,-0.053
1670354922.119962,-9.235,0.04,4.791,-0.6604,-0.38480000000000003,0.38770000000000004,0.001,0.015,-0.05
1670354922.159962,-9.257,0.107,4.807,-0.6584,-0.3836,0.3889,0.009000000000000001,0.018000000000000002,-0.047
1670354922.199962,-9.195,-0.001,4.761,-0.6613,-0.38470000000000004,0.3889,0.003,0.018000000000000002,-0.052000000000000005
1670354922.239962,-9.187,0.023,4.735,-0.662,-0.3844,0.3884,-0.002,0.02,-0.046
1670354922.279962,-9.208,0.051000000000000004,4.748,-0.6591,-0.3834,0.388,-0.001,0.014,-0.045
1670354922.319962,-9.224,0.049,4.84,-0.6622,-0.3861,0.38880000000000003,0.011,0.009000000000000001,-0.047
1670354922.359962,-9.218,0.013000000000000001,4.764,-0.6602,-0.3841,0.3874,0.01,0.014,-0.053
1670354922.399961,-9.214,-0.01,4.801,-0.6604,-0.3824,0.3922,0.005,0.015,-0.053
1670354922.439961,-9.204,0.093,4.777,-0.6604,-0.38330000000000003,0.3859,-0.002,0.017,-0.047
1670354922.479961,-9.236,-0.002,4.7860000000000005,-0.6601,-0.38520000000000004,0.39030000000000004,0.005,0.025,-0.047
1670354922.5199609,-9.185,0.043000000000000003,4.752,-0.6608,-0.3851,0.389,0.007,0.025,-0.056
1670354922.559961,-9.194,0.042,4.761,-0.6624,-0.3861,0.39130000000000004,-0.002,0.014,-0.042
1670354922.599961,-9.207,0.093,4.769,-0.6621,-0.38480000000000003,0.3905,0.003,0.009000000000000001,-0.049
1670354922.639961,-9.224,0.052000000000000005,4.822,-0.6585000000000001,-0.3839,0.38770000000000004,0.014,0.005,-0.06
1670354922.679961,-9.216000000000001,0.007,4.782,-0.6598,-0.3846,0.3881,0.013000000000000001,0.01,-0.056
1670354922.719961,-9.207,0.033,4.752,-0.6698000000000001,-0.38920000000000005,0.401,0.0,0.016,-0.05
1670354922.759961,-9.200000000000001,0.042,4.8,-0.6661,-0.38480000000000003,0.40850000000000003,-0.002,0.012,-0.045
1670354922.799961,-9.200000000000001,0.04,4.776,-0.6661,-0.3846,0.4043,0.002,0.021,-0.051000000000000004
1670354922.839961,-9.214,0.04,4.8100000000000005,-0.6648000000000001,-0.3846,0.3729,0.005,0.017,-0.053
1670354922.799961,-9.191,0.012,4.8100000000000005,-0.6613,-0.3845,0.3729,0.006,0.017,-0.041
1670354922.839961,-9.214,0.029,4.813,-0.6599,-0.38570000000000004,0.38020000000000004,0.006,0.018000000000000002,-0.05
1670354922.879961,-9.231,0.023,4.797,-0.6628000000000001,-0.3845,0.40990000000000004,0.009000000000000001,0.013000000000000001,-0.043000000000000003
1670354922.919961,-9.199,0.026000000000000002,4.784,-0.662,-0.38470000000000004,0.37470000000000003,0.009000000000000001,0.018000000000000002,-0.042
1670354922.959961,-9.200000000000001,0.031,4.7860000000000005,-0.661,-0.38530000000000003,0.38970000000000005,0.003,0.016,-0.038
1670354922.999961,-9.148,0.06,4.785,-0.6597000000000001,-0.38680000000000003,0.3905,0.0,0.009000000000000001,-0.043000000000000003
1670354923.039961,-9.178,0.076,4.798,-0.6605000000000001,-0.3861,0.3886,0.018000000000000002,0.011,-0.045
1670354923.079961,-9.273,0.026000000000000002,4.8260000000000005,-0.6598,-0.3826,0.3869,0.011,0.02,-0.053
1670354923.119961,-9.147,0.065,4.747,-0.6604,-0.3856,0.3916,-0.001,0.019,-0.041
1670354923.159961,-9.214,0.013000000000000001,4.761,-0.6636000000000001,-0.3855,0.3906,-0.009000000000000001,0.014,-0.042
1670354923.199961,-9.207,0.058,4.798,-0.6619,-0.3865,0.3937,0.002,0.016,-0.053
1670354923.239961,-9.23,0.04,4.861,-0.6589,-0.3844,0.3895,0.007,0.015,-0.057
1670354923.279961,-9.183,0.043000000000000003,4.804,-0.6636000000000001,-0.3829,0.38770000000000004,-0.002,0.025,-0.056
1670354923.319961,-9.202,0.012,4.798,-0.6582,-0.3855,0.387,-0.003,0.021,-0.045
1670354923.359961,-9.226,0.101,4.783,-0.6611,-0.3866,0.38970000000000005,0.01,0.03,-0.045
1670354923.399961,-9.23,0.053,4.782,-0.6601,-0.38520000000000004,0.391,0.01,0.034,-0.051000000000000004
1670354923.43996,-9.19,0.042,4.783,-0.6628000000000001,-0.3874,0.3895,0.0,0.018000000000000002,-0.043000000000000003
1670354923.47996,-9.176,0.055,4.779,-0.6594,-0.38370000000000004,0.3885,-0.003,0.016,-0.048
1670354923.51996,-9.202,0.075,4.767,-0.6601,-0.3846,0.3894,0.007,0.007,-0.061
1670354923.55996,-9.212,0.028,4.809,-0.6626000000000001,-0.38580000000000003,0.38720000000000004,0.004,0.011,-0.061
1670354923.59996,-9.205,0.01,4.805,-0.6586000000000001,-0.38480000000000003,0.3932,-0.008,0.013000000000000001,-0.048
1670354923.63996,-9.196,0.021,4.8,-0.6599,-0.3831,0.39280000000000004,-0.007,0.013000000000000001,-0.051000000000000004
1670354923.67996,-9.22,0.038,4.797,-0.6609,-0.38720000000000004,0.394,0.0,0.023,-0.047
1670354923.71996,-9.184000000000001,0.037,4.843,-0.6626000000000001,-0.38670000000000004,0.39690000000000003,0.001,0.026000000000000002,-0.052000000000000005
1670354923.75996,-9.211,0.014,4.8,-0.6627000000000001,-0.3856,0.3914,0.004,0.022,-0.05
1670354923.79996,-9.194,0.031,4.8020000000000005,-0.6637000000000001,-0.3845,0.3899,0.009000000000000001,0.019,-0.046
1670354923.83996,-9.16,0.04,4.806,-0.6593,-0.38530000000000003,0.3902,0.007,0.017,-0.053
1670354923.87996,-9.196,0.011,4.797,-0.6605000000000001,-0.3826,0.3942,0.003,0.012,-0.048
1670354923.91996,-9.229000000000001,0.02,4.796,-0.6574,-0.38330000000000003,0.38830000000000003,0.006,0.009000000000000001,-0.044
1670354923.95996,-9.241,0.079,4.83,-0.6587000000000001,-0.3846,0.3911,0.012,0.027,-0.052000000000000005
1670354923.99996,-9.16,0.025,4.74,-0.6593,-0.38270000000000004,0.3919,0.005,0.026000000000000002,-0.051000000000000004
1670354924.03996,-9.159,0.049,4.718,-0.6591,-0.3869,0.38830000000000003,-0.004,0.013000000000000001,-0.044
1670354924.07996,-9.23,0.047,4.787,-0.6607000000000001,-0.3854,0.3889,-0.001,0.012,-0.05
1670354924.11996,-9.199,0.036000000000000004,4.843,-0.6581,-0.3834,0.3904,0.006,0.007,-0.062
1670354924.15996,-9.221,0.005,4.799,-0.6608,-0.38170000000000004,0.3869,0.001,0.014,-0.051000000000000004
1670354924.19996,-9.233,-0.01,4.804,-0.661,-0.387,0.3896,-0.005,0.014,-0.047
1670354924.23996,-9.191,0.11800000000000001,4.803,-0.6584,-0.3829,0.3924,0.006,0.012,-0.039
1670354924.27996,-9.227,0.013000000000000001,4.801,-0.6618,-0.3845,0.3901,0.019,0.033,-0.044
1670354924.31996,-9.179,0.034,4.769,-0.6591,-0.386,0.38780000000000003,0.021,0.034,-0.043000000000000003
1670354924.35996,-9.171,0.062,4.801,-0.6591,-0.38370000000000004,0.393,0.008,0.022,-0.035
1670354924.39996,-9.205,0.099,4.781,-0.658,-0.38420000000000004,0.3891,0.008,0.012,-0.052000000000000005
1670354924.43996,-9.199,0.052000000000000005,4.791,-0.6611,-0.3844,0.387,0.011,0.007,-0.063
1670354924.479959,-9.206,0.021,4.756,-0.6598,-0.38120000000000004,0.391,0.0,0.011,-0.047
1670354924.519959,-9.218,0.055,4.771,-0.6626000000000001,-0.383,0.3875,0.0,0.02,-0.044
1670354924.559959,-9.23,0.062,4.767,-0.658,-0.38370000000000004,0.3895,0.003,0.021,-0.05
1670354924.599959,-9.215,0.051000000000000004,4.7780000000000005,-0.6595000000000001,-0.3855,0.39130000000000004,0.008,0.03,-0.054
1670354924.639959,-9.202,0.013000000000000001,4.8100000000000005,-0.6582,-0.38380000000000003,0.38970000000000005,0.006,0.028,-0.05
1670354924.679959,-9.204,0.05,4.781,-0.661,-0.3871,0.38980000000000004,0.004,0.019,-0.045
1670354924.719959,-9.221,0.048,4.819,-0.6636000000000001,-0.38680000000000003,0.3916,0.003,0.015,-0.054
1670354924.759959,-9.188,0.001,4.766,-0.6599,-0.3844,0.38920000000000005,0.007,0.018000000000000002,-0.045
1670354924.799959,-9.255,0.057,4.788,-0.6605000000000001,-0.3866,0.388,0.007,0.007,-0.049
1670354924.839959,-9.258000000000001,0.125,4.815,-0.6606000000000001,-0.38530000000000003,0.38970000000000005,0.018000000000000002,0.012,-0.036000000000000004
1670354924.879959,-9.208,0.002,4.803,-0.6588,-0.38620000000000004,0.39030000000000004,0.01,0.028,-0.046
1670354924.919959,-9.166,0.055,4.741,-0.6619,-0.3855,0.3911,0.004,0.03,-0.046
1670354924.959959,-9.166,0.083,4.761,-0.6619,-0.3855,0.36610000000000004,0.0,0.022,-0.046
1670354924.999959,-9.215,0.083,4.761,-0.6628000000000001,-0.38630000000000003,0.36610000000000004,0.009000000000000001,0.015,-0.052000000000000005
1670354925.039959,-9.21,0.079,4.807,-0.6612,-0.3849,0.37010000000000004,0.005,0.01,-0.058
1670354925.079959,-9.226,0.044,4.809,-0.6614,-0.3839,0.401,-0.017,0.033,-0.049
1670354925.119959,-9.175,-0.047,4.784,-0.6612,-0.3866,0.4016,-0.02,0.032,-0.039
1670354925.159959,-9.227,0.157,4.774,-0.6595000000000001,-0.38420000000000004,0.3899,0.016,0.025,-0.046
1670354925.199959,-9.233,0.053,4.772,-0.6598,-0.3855,0.3899,0.034,0.026000000000000002,-0.062
1670354925.239959,-9.167,0.037,4.749,-0.6583,-0.3874,0.3866,0.028,0.012,-0.044
1670354925.279959,-9.202,0.07200000000000001,4.742,-0.6623,-0.38320000000000004,0.38730000000000003,0.008,0.007,-0.041
1670354925.319959,-9.226,0.058,4.803,-0.66,-0.3866,0.38880000000000003,0.012,0.004,-0.058
1670354925.359959,-9.212,0.069,4.803,-0.6604,-0.38470000000000004,0.3895,0.012,0.0,-0.064
1670354925.3999588,-9.202,0.046,4.809,-0.6612,-0.38680000000000003,0.3899,0.0,0.005,-0.055
1670354925.439959,-9.217,0.055,4.798,-0.6621,-0.3839,0.3899,-0.002,0.007,-0.048
1670354925.479959,-9.212,0.08600000000000001,4.804,-0.6659,-0.3895,0.398,0.0,0.021,-0.059000000000000004
1670354925.519958,-9.202,0.052000000000000005,4.812,-0.6597000000000001,-0.3839,0.39080000000000004,0.008,0.026000000000000002,-0.057
1670354925.559958,-9.197000000000001,0.065,4.805,-0.6738000000000001,-0.38920000000000005,0.39390000000000003,0.002,0.023,-0.052000000000000005
1670354925.599958,-9.200000000000001,0.064,4.812,-0.6629,-0.38420000000000004,0.3881,0.0,0.017,-0.048
1670354925.639958,-9.187,0.076,4.788,-0.6613,-0.38670000000000004,0.3912,0.0,0.019,-0.052000000000000005
1670354925.679958,-9.206,0.079,4.78,-0.66,-0.3841,0.3899,0.005,0.014,-0.054
1670354925.719958,-9.185,0.056,4.7860000000000005,-0.6673,-0.3856,0.3924,0.003,0.02,-0.049
1670354925.759958,-9.226,0.016,4.825,-0.6616000000000001,-0.3851,0.3905,-0.006,0.025,-0.051000000000000004
1670354925.799958,-9.173,0.077,4.793,-0.6612,-0.3846,0.39180000000000004,-0.006,0.022,-0.048
1670354925.839958,-9.203,0.11,4.812,-0.659,-0.3841,0.38830000000000003,0.001,0.015,-0.044
1670354925.879958,-9.208,-0.016,4.763,-0.6615,-0.3851,0.3911,0.007,0.027,-0.058
1670354925.919958,-9.175,0.065,4.749,-0.6613,-0.38630000000000003,0.3879,-0.002,0.021,-0.047
1670354925.959958,-9.223,0.04,4.789,-0.6604,-0.3844,0.3881,-0.01,0.012,-0.05
1670354925.999958,-9.214,0.07200000000000001,4.83,-0.6597000000000001,-0.385,0.3924,-0.003,0.015,-0.054
1670354926.039958,-9.205,0.017,4.821,-0.659,-0.385,0.3905,0.01,0.011,-0.05
1670354926.079958,-9.19,0.031,4.83,-0.6609,-0.386,0.3875,0.002,0.021,-0.054
1670354926.119958,-9.154,0.047,4.7620000000000005,-0.6617000000000001,-0.387,0.3895,0.0,0.02,-0.04
1670354926.159958,-9.246,0.008,4.801,-0.661,-0.3839,0.3914,0.008,0.03,-0.048
1670354926.1999578,-9.197000000000001,0.07100000000000001,4.797,-0.6603,-0.3859,0.38930000000000003,0.004,0.029,-0.048
1670354926.239958,-9.19,0.042,4.751,-0.662,-0.38270000000000004,0.391,-0.003,0.016,-0.039
1670354926.279958,-9.178,0.064,4.803,-0.66,-0.3861,0.38980000000000004,0.003,0.011,-0.038
1670354926.319958,-9.236,0.07100000000000001,4.8,-0.6615,-0.3864,0.38670000000000004,0.012,0.009000000000000001,-0.058
1670354926.359958,-9.203,0.01,4.807,-0.6582,-0.3844,0.3914,0.009000000000000001,0.006,-0.061
1670354926.399958,-9.194,0.036000000000000004,4.768,-0.6612,-0.3856,0.38930000000000003,-0.005,0.016,-0.045
1670354926.4399579,-9.206,0.043000000000000003,4.801,-0.6613,-0.3869,0.38770000000000004,-0.005,0.026000000000000002,-0.05
1670354926.479958,-9.212,0.032,4.821,-0.6617000000000001,-0.383,0.3886,0.006,0.025,-0.052000000000000005
1670354926.519958,-9.185,0.04,4.775,-0.6585000000000001,-0.38330000000000003,0.3912,0.006,0.029,-0.052000000000000005
1670354926.559958,-9.199,0.044,4.768,-0.6604,-0.3844,0.3875,-0.001,0.015,-0.044
1670354926.599958,-9.177,0.065,4.7940000000000005,-0.6621,-0.3851,0.3889,0.006,0.02,-0.048
1670354926.639957,-9.204,0.037,4.7860000000000005,-0.661,-0.385,0.38880000000000003,0.01,0.015,-0.048
1670354926.679957,-9.196,0.055,4.801,-0.6585000000000001,-0.38370000000000004,0.39080000000000004,0.012,0.017,-0.046
1670354926.719957,-9.168000000000001,0.045,4.782,-0.662,-0.38470000000000004,0.39230000000000004,0.012,0.016,-0.044
1670354926.759957,-9.18,0.021,4.809,-0.6593,-0.38620000000000004,0.3915,0.003,0.02,-0.043000000000000003
1670354926.799957,-9.231,0.03,4.808,-0.6577000000000001,-0.384,0.3899,0.001,0.019,-0.052000000000000005
1670354926.839957,-9.272,0.078,4.7940000000000005,-0.661,-0.3846,0.38820000000000005,0.007,0.016,-0.04
1670354926.879957,-9.184000000000001,0.029,4.752,-0.6595000000000001,-0.38480000000000003,0.3921,0.0,0.02,-0.049
1670354926.919957,-9.169,0.037,4.76,-0.6609,-0.3866,0.3889,-0.004,0.017,-0.045
1670354926.959957,-9.236,0.044,4.792,-0.6598,-0.3844,0.38920000000000005,-0.001,0.01,-0.047
1670354926.9999568,-9.215,0.07100000000000001,4.848,-0.6608,-0.3815,0.3885,0.008,0.011,-0.063
1670354927.039957,-9.245000000000001,0.009000000000000001,4.813,-0.6557000000000001,-0.3836,0.39130000000000004,0.004,0.015,-0.056
1670354927.079957,-9.197000000000001,-0.004,4.841,-0.6589,-0.3869,0.3869,-0.005,0.018000000000000002,-0.05
1670354927.119957,-9.217,0.134,4.772,-0.6604,-0.38520000000000004,0.4002,0.0,0.018000000000000002,-0.029
1670354927.159957,-9.225,0.023,4.813,-0.6604,-0.3854,0.4043,0.008,0.031,-0.044
1670354927.199957,-9.225,0.023,4.742,-0.6601,-0.3854,0.391,0.009000000000000001,0.03,-0.047
1670354927.2399569,-9.181000000000001,0.029,4.742,-0.6615,-0.3849,0.391,-0.001,0.02,-0.04
1670354927.279957,-9.200000000000001,0.044,4.806,-0.6616000000000001,-0.3859,0.37360000000000004,0.0,0.011,-0.045
1670354927.319957,-9.223,0.079,4.782,-0.6622,-0.38420000000000004,0.395,0.008,0.012,-0.059000000000000004
1670354927.359957,-9.208,0.031,4.801,-0.6617000000000001,-0.3855,0.3871,0.007,0.012,-0.058
1670354927.399957,-9.203,0.015,4.7860000000000005,-0.6607000000000001,-0.38520000000000004,0.37520000000000003,-0.003,0.013000000000000001,-0.049
1670354927.439957,-9.200000000000001,0.034,4.812,-0.6605000000000001,-0.387,0.3915,-0.002,0.015,-0.049
1670354927.4799569,-9.199,0.038,4.743,-0.6603,-0.3841,0.3935,0.0,0.018000000000000002,-0.048
1670354927.519957,-9.206,0.039,4.825,-0.6593,-0.3859,0.38870000000000005,0.007,0.021,-0.051000000000000004
1670354927.559957,-9.200000000000001,0.04,4.831,-0.659,-0.38320000000000004,0.39,0.006,0.018000000000000002,-0.054
1670354927.599957,-9.219,0.032,4.8180000000000005,-0.6649,-0.38430000000000003,0.39080000000000004,0.01,0.018000000000000002,-0.051000000000000004
1670354927.639957,-9.197000000000001,0.04,4.825,-0.672,-0.3891,0.3929,0.01,0.017,-0.047
1670354927.679956,-9.225,0.039,4.7860000000000005,-0.6565000000000001,-0.3841,0.3891,0.011,0.019,-0.051000000000000004
1670354927.719956,-9.189,0.055,4.825,-0.6587000000000001,-0.38830000000000003,0.3932,0.006,0.021,-0.046
1670354927.759956,-9.199,0.067,4.774,-0.6613,-0.3855,0.3932,0.002,0.024,-0.054
1670354927.7999558,-9.212,0.069,4.78,-0.6628000000000001,-0.3849,0.3932,0.001,0.02,-0.051000000000000004
1670354927.839956,-9.222,0.062,4.756,-0.659,-0.3875,0.3912,0.007,0.02,-0.042
1670354927.879956,-9.253,0.032,4.758,-0.6598,-0.386,0.3881,0.004,0.034,-0.054
1670354927.919956,-9.185,0.076,4.764,-0.6575000000000001,-0.3864,0.3901,-0.005,0.018000000000000002,-0.054
1670354927.959956,-9.19,0.036000000000000004,4.745,-0.66,-0.38480000000000003,0.38830000000000003,-0.002,0.018000000000000002,-0.045
1670354927.999956,-9.23,0.048,4.825,-0.6609,-0.3864,0.389,0.002,0.012,-0.062
1670354928.0399559,-9.221,0.027,4.822,-0.661,-0.3839,0.38970000000000005,0.003,0.008,-0.053
1670354928.079956,-9.226,0.027,4.775,-0.6602,-0.3839,0.389,-0.003,0.015,-0.053
1670354928.119956,-9.166,0.034,4.737,-0.6608,-0.3864,0.39,-0.002,0.018000000000000002,-0.043000000000000003
1670354928.159956,-9.255,0.067,4.766,-0.6603,-0.3845,0.38630000000000003,0.009000000000000001,0.027,-0.046
1670354928.199956,-9.231,0.067,4.783,-0.658,-0.384,0.3896,0.015,0.025,-0.055
1670354928.239956,-9.194,0.022,4.752,-0.6602,-0.38520000000000004,0.38780000000000003,0.004,0.018000000000000002,-0.042
1670354928.2799559,-9.206,0.077,4.79,-0.6598,-0.3861,0.38670000000000004,0.004,0.017,-0.039
1670354928.319956,-9.213000000000001,0.091,4.749,-0.6618,-0.3859,0.3902,0.012,0.002,-0.062
1670354928.359956,-9.223,0.0,4.76,-0.6624,-0.3845,0.3917,0.007,0.004,-0.059000000000000004
1670354928.399956,-9.206,0.055,4.771,-0.6617000000000001,-0.3866,0.3874,-0.008,0.008,-0.05
1670354928.439956,-9.218,0.044,4.813,-0.6604,-0.3856,0.3907,-0.006,0.015,-0.044
1670354928.479956,-9.198,0.044,4.767,-0.6612,-0.3866,0.38780000000000003,0.001,0.02,-0.052000000000000005
