timestamp,acc_x,acc_y,acc_z,magn_x,magn_y,magn_z,gyro_x,gyro_y,gyro_z
1670355891.08,-9.337,-0.257,4.597,-0.6519,-0.3861,0.36160000000000003,0.0,0.012,-0.048
1670355891.12,-9.284,-0.28400000000000003,4.628,-0.6663,-0.3935,0.36860000000000004,0.012,0.0,-0.046
1670355891.16,-9.305,-0.269,4.625,-0.6496000000000001,-0.3866,0.36360000000000003,0.012,-0.001,-0.051000000000000004
1670355891.2,-9.324,-0.255,4.646,-0.6513,-0.3864,0.3597,0.024,0.0,-0.054
1670355891.24,-9.315,-0.311,4.656,-0.6523,-0.38770000000000004,0.3609,0.016,0.001,-0.061
1670355891.28,-9.290000000000001,-0.28500000000000003,4.657,-0.652,-0.38730000000000003,0.3679,0.004,0.014,-0.049
1670355891.32,-9.287,-0.281,4.624,-0.6527000000000001,-0.38780000000000003,0.3623,-0.002,0.015,-0.051000000000000004
1670355891.36,-9.306000000000001,-0.263,4.6080000000000005,-0.6493,-0.3846,0.3609,0.0,0.021,-0.051000000000000004
1670355891.4,-9.295,-0.263,4.6370000000000005,-0.6513,-0.3869,0.36000000000000004,-0.003,0.02,-0.056
1670355891.44,-9.281,-0.28700000000000003,4.651,-0.655,-0.38880000000000003,0.3618,0.0,0.022,-0.056
1670355891.48,-9.278,-0.263,4.618,-0.653,-0.38780000000000003,0.3584,0.003,0.02,-0.054
1670355891.52,-9.322000000000001,-0.251,4.643,-0.6629,-0.39,0.373,0.013000000000000001,0.021,-0.053
1670355891.559999,-9.299,-0.262,4.624,-0.6527000000000001,-0.3901,0.3609,0.016,0.019,-0.058
1670355891.599999,-9.287,-0.28200000000000003,4.623,-0.6512,-0.38720000000000004,0.3599,0.0,0.015,-0.062
1670355891.639999,-9.317,-0.325,4.658,-0.6514,-0.38380000000000003,0.36460000000000004,-0.003,0.007,-0.036000000000000004
1670355891.6799989,-9.369,-0.162,4.667,-0.6512,-0.3874,0.3561,0.009000000000000001,0.009000000000000001,-0.054
1670355891.719999,-9.292,-0.35000000000000003,4.64,-0.6515000000000001,-0.3885,0.35960000000000003,0.003,0.013000000000000001,-0.063
1670355891.759999,-9.254,-0.296,4.586,-0.6527000000000001,-0.38670000000000004,0.3617,-0.007,0.021,-0.062
1670355891.799999,-9.286,-0.293,4.616,-0.6518,-0.38530000000000003,0.3609,-0.02,0.012,-0.041
1670355891.839999,-9.303,-0.28300000000000003,4.657,-0.6502,-0.38530000000000003,0.36110000000000003,-0.011,0.01,-0.048
1670355891.879999,-9.342,-0.256,4.659,-0.6525000000000001,-0.3859,0.3628,0.007,0.016,-0.064
1670355891.919999,-9.281,-0.394,4.6610000000000005,-0.6512,-0.3869,0.36310000000000003,0.004,0.018000000000000002,-0.063
1670355891.959999,-9.297,-0.244,4.65,-0.6519,-0.387,0.3607,-0.001,0.024,-0.043000000000000003
1670355891.999999,-9.297,-0.301,4.616,-0.6515000000000001,-0.3864,0.3607,0.006,0.025,-0.045
1670355892.039999,-9.304,-0.268,4.6530000000000005,-0.6499,-0.3866,0.3603,0.015,0.021,-0.051000000000000004
1670355892.079999,-9.288,-0.279,4.621,-0.6513,-0.38680000000000003,0.36150000000000004,0.016,0.019,-0.05
1670355892.119999,-9.303,-0.298,4.626,-0.6514,-0.3875,0.3639,0.005,0.018000000000000002,-0.053
1670355892.159999,-9.312,-0.295,4.616,-0.6509,-0.3855,0.3594,0.005,0.019,-0.057
1670355892.199999,-9.296,-0.313,4.619,-0.6535000000000001,-0.38580000000000003,0.3603,-0.004,0.018000000000000002,-0.06
1670355892.239999,-9.327,-0.289,4.6370000000000005,-0.6493,-0.38720000000000004,0.3609,-0.008,0.019,-0.056
1670355892.279999,-9.326,-0.308,4.639,-0.6535000000000001,-0.3859,0.36060000000000003,-0.012,0.021,-0.052000000000000005
1670355892.319999,-9.282,-0.318,4.6450000000000005,-0.653,-0.38570000000000004,0.36100000000000004,-0.008,0.028,-0.051000000000000004
1670355892.359999,-9.285,-0.308,4.649,-0.6516000000000001,-0.38670000000000004,0.3612,-0.006,0.023,-0.053
1670355892.399999,-9.285,-0.318,4.633,-0.6517000000000001,-0.3856,0.36200000000000004,-0.003,0.021,-0.052000000000000005
1670355892.439999,-9.322000000000001,-0.301,4.598,-0.651,-0.3856,0.3634,-0.002,0.019,-0.053
1670355892.479999,-9.312,-0.304,4.613,-0.649,-0.3866,0.35960000000000003,0.007,0.021,-0.063
1670355892.519999,-9.252,-0.338,4.633,-0.6489,-0.3839,0.3604,0.0,0.015,-0.061
1670355892.559999,-9.357,-0.302,4.6450000000000005,-0.6517000000000001,-0.3855,0.36100000000000004,0.0,0.022,-0.049
1670355892.599998,-9.341000000000001,-0.367,4.626,-0.6509,-0.3859,0.3612,-0.001,0.036000000000000004,-0.053
1670355892.639998,-9.262,-0.279,4.598,-0.6518,-0.3874,0.36310000000000003,0.002,0.027,-0.053
1670355892.679998,-9.284,-0.356,4.622,-0.6512,-0.385,0.3587,-0.001,0.019,-0.045
1670355892.719998,-9.311,-0.311,4.634,-0.6486000000000001,-0.387,0.364,-0.004,0.013000000000000001,-0.054
1670355892.759998,-9.319,-0.323,4.69,-0.664,-0.38720000000000004,0.3618,0.005,0.004,-0.054
1670355892.799998,-9.242,-0.41300000000000003,4.625,-0.654,-0.38630000000000003,0.3634,0.0,0.009000000000000001,-0.061
1670355892.839998,-9.269,-0.278,4.652,-0.6541,-0.38670000000000004,0.3667,-0.007,0.014,-0.036000000000000004
1670355892.879998,-9.324,-0.368,4.634,-0.6521,-0.38830000000000003,0.3593,0.005,0.023,-0.044
1670355892.919998,-9.324,-0.314,4.621,-0.6521,-0.38780000000000003,0.3623,0.012,0.032,-0.051000000000000004
1670355892.959998,-9.306000000000001,-0.314,4.609,-0.6529,-0.38780000000000003,0.3623,0.017,0.024,-0.047
1670355892.999998,-9.258000000000001,-0.305,4.609,-0.6529,-0.3854,0.3628,0.008,0.014,-0.047
1670355893.039998,-9.315,-0.322,4.618,-0.6523,-0.3851,0.3623,0.014,0.002,-0.055
1670355893.079998,-9.317,-0.299,4.662,-0.6499,-0.38630000000000003,0.3689,0.006,0.014,-0.056
1670355893.119998,-9.3,-0.35100000000000003,4.612,-0.6528,-0.3875,0.3541,0.001,0.013000000000000001,-0.051000000000000004
1670355893.159998,-9.317,-0.316,4.632,-0.6491,-0.38580000000000003,0.365,0.0,0.023,-0.05
1670355893.199998,-9.313,-0.327,4.6690000000000005,-0.651,-0.3831,0.3634,0.003,0.018000000000000002,-0.046
1670355893.239998,-9.302,-0.339,4.6610000000000005,-0.6506000000000001,-0.38570000000000004,0.3597,0.002,0.016,-0.047
1670355893.279998,-9.305,-0.342,4.642,-0.6494,-0.3859,0.3604,0.007,0.013000000000000001,-0.049
1670355893.319998,-9.309000000000001,-0.319,4.648,-0.6521,-0.3859,0.36160000000000003,0.01,0.018000000000000002,-0.05
1670355893.359998,-9.307,-0.334,4.622,-0.6521,-0.3859,0.3604,0.016,0.016,-0.051000000000000004
1670355893.399998,-9.290000000000001,-0.352,4.667,-0.6516000000000001,-0.38530000000000003,0.36150000000000004,0.007,0.02,-0.05
1670355893.439998,-9.317,-0.319,4.655,-0.6505000000000001,-0.38420000000000004,0.3607,0.005,0.028,-0.04
1670355893.479998,-9.376,-0.23800000000000002,4.6290000000000004,-0.6515000000000001,-0.38480000000000003,0.3609,0.013000000000000001,0.04,-0.046
1670355893.519998,-9.274000000000001,-0.358,4.599,-0.654,-0.38670000000000004,0.36000000000000004,0.012,0.031,-0.058
1670355893.559998,-9.255,-0.309,4.569,-0.6491,-0.38630000000000003,0.3604,0.003,0.011,-0.053
1670355893.599998,-9.288,-0.295,4.598,-0.6572,-0.38880000000000003,0.3629,-0.006,0.008,-0.047
1670355893.639997,-9.323,-0.319,4.633,-0.6501,-0.3839,0.36050000000000004,0.004,0.01,-0.063
1670355893.679997,-9.341000000000001,-0.31,4.658,-0.6523,-0.38770000000000004,0.3634,0.008,0.013000000000000001,-0.053
1670355893.719997,-9.305,-0.396,4.6290000000000004,-0.6514,-0.387,0.36100000000000004,-0.008,0.024,-0.045
1670355893.759997,-9.317,-0.254,4.6450000000000005,-0.6523,-0.3859,0.3614,0.0,0.029,-0.043000000000000003
1670355893.799997,-9.331,-0.325,4.606,-0.6505000000000001,-0.38420000000000004,0.3638,0.008,0.031,-0.053
1670355893.839997,-9.272,-0.301,4.591,-0.6502,-0.3844,0.3598,0.016,0.024,-0.053
1670355893.879997,-9.279,-0.333,4.656,-0.6526000000000001,-0.3849,0.3592,0.007,0.018000000000000002,-0.046
1670355893.919997,-9.315,-0.28700000000000003,4.6000000000000005,-0.6496000000000001,-0.385,0.3593,0.01,0.012,-0.049
1670355893.959997,-9.290000000000001,-0.314,4.581,-0.6479,-0.3846,0.36100000000000004,0.013000000000000001,0.018000000000000002,-0.058
1670355893.999997,-9.332,-0.321,4.616,-0.6512,-0.38720000000000004,0.3623,0.007,0.016,-0.054
1670355894.039997,-9.306000000000001,-0.305,4.617,-0.6483,-0.38630000000000003,0.36150000000000004,0.0,0.02,-0.045
1670355894.079997,-9.302,-0.307,4.61,-0.6488,-0.38580000000000003,0.36200000000000004,-0.001,0.027,-0.046
1670355894.119997,-9.316,-0.313,4.633,-0.6481,-0.3855,0.36310000000000003,0.0,0.021,-0.06
1670355894.159997,-9.306000000000001,-0.307,4.595,-0.6496000000000001,-0.38530000000000003,0.3628,0.0,0.019,-0.047
1670355894.199997,-9.293000000000001,-0.298,4.613,-0.6496000000000001,-0.3841,0.36150000000000004,0.005,0.014,-0.055
1670355894.239997,-9.299,-0.274,4.6000000000000005,-0.6521,-0.3851,0.3604,0.009000000000000001,0.018000000000000002,-0.05
1670355894.279997,-9.297,-0.322,4.654,-0.652,-0.3844,0.36200000000000004,0.017,0.018000000000000002,-0.051000000000000004
1670355894.319997,-9.316,-0.368,4.61,-0.6494,-0.3869,0.3613,0.0,0.019,-0.055
1670355894.359997,-9.354000000000001,-0.306,4.606,-0.6505000000000001,-0.3841,0.36160000000000003,-0.008,0.022,-0.042
1670355894.399997,-9.363,-0.194,4.619,-0.649,-0.3841,0.3604,0.012,0.025,-0.045
1670355894.439997,-9.303,-0.317,4.619,-0.6462,-0.38470000000000004,0.3612,0.014,0.018000000000000002,-0.059000000000000004
1670355894.479997,-9.235,-0.342,4.524,-0.6505000000000001,-0.3876,0.36250000000000004,0.003,0.016,-0.056
1670355894.519997,-9.305,-0.298,4.614,-0.6489,-0.387,0.36200000000000004,-0.005,0.01,-0.045
1670355894.5599968,-9.338000000000001,-0.28200000000000003,4.6530000000000005,-0.6485000000000001,-0.38420000000000004,0.36510000000000004,0.003,0.018000000000000002,-0.053
1670355894.599997,-9.342,-0.325,4.674,-0.651,-0.38580000000000003,0.36110000000000003,0.005,0.016,-0.063
1670355894.639997,-9.3,-0.364,4.6370000000000005,-0.651,-0.386,0.3604,0.0,0.022,-0.056
1670355894.679996,-9.335,-0.254,4.593,-0.6516000000000001,-0.3834,0.3642,-0.005,0.019,-0.039
1670355894.719996,-9.34,-0.269,4.613,-0.6505000000000001,-0.382,0.3603,0.006,0.022,-0.049
1670355894.759996,-9.311,-0.311,4.627,-0.6514,-0.38670000000000004,0.3609,0.015,0.027,-0.056
1670355894.799996,-9.297,-0.316,4.648,-0.6506000000000001,-0.3855,0.36050000000000004,0.008,0.021,-0.044
1670355894.839996,-9.31,-0.264,4.628,-0.6513,-0.3879,0.3643,0.003,0.017,-0.047
1670355894.879996,-9.305,-0.293,4.625,-0.656,-0.3864,0.36210000000000003,0.029,0.025,-0.068
1670355894.919996,-9.27,-0.334,4.577,-0.6502,-0.38670000000000004,0.3643,0.013000000000000001,0.015,-0.057
1670355894.959996,-9.336,-0.38,4.622,-0.6503,-0.3864,0.35810000000000003,-0.025,0.011,-0.043000000000000003
1670355894.999996,-9.293000000000001,-0.271,4.64,-0.6501,-0.3859,0.36200000000000004,-0.019,0.015,-0.031
1670355895.039996,-9.299,-0.28400000000000003,4.616,-0.6516000000000001,-0.38620000000000004,0.3634,0.013000000000000001,0.023,-0.056
1670355895.079996,-9.305,-0.341,4.6080000000000005,-0.6516000000000001,-0.3851,0.3529,0.014,0.02,-0.061
1670355895.119996,-9.293000000000001,-0.34800000000000003,4.642,-0.6526000000000001,-0.3855,0.35760000000000003,0.003,0.017,-0.041
1670355895.159996,-9.293000000000001,-0.301,4.622,-0.6526000000000001,-0.3855,0.374,-0.002,0.014,-0.043000000000000003
1670355895.199996,-9.317,-0.301,4.622,-0.651,-0.3844,0.374,0.012,0.013000000000000001,-0.052000000000000005
1670355895.239996,-9.31,-0.28,4.5760000000000005,-0.6506000000000001,-0.385,0.34540000000000004,0.019,0.016,-0.054
1670355895.279996,-9.315,-0.298,4.606,-0.649,-0.3885,0.388,0.006,0.019,-0.05
1670355895.319996,-9.293000000000001,-0.312,4.628,-0.6494,-0.3866,0.3435,0.002,0.02,-0.051000000000000004
1670355895.359996,-9.244,-0.34400000000000003,4.6000000000000005,-0.6534,-0.3849,0.3652,-0.011,0.012,-0.053
1670355895.399996,-9.348,-0.299,4.634,-0.6491,-0.3866,0.3594,0.004,0.009000000000000001,-0.031
1670355895.439996,-9.393,-0.28300000000000003,4.614,-0.6491,-0.385,0.36150000000000004,0.008,0.023,-0.06
1670355895.479996,-9.311,-0.295,4.594,-0.6496000000000001,-0.386,0.3604,0.001,0.026000000000000002,-0.058
1670355895.519996,-9.281,-0.371,4.609,-0.6478,-0.38570000000000004,0.36160000000000003,-0.006,0.013000000000000001,-0.044
1670355895.559996,-9.305,-0.289,4.604,-0.6489,-0.38520000000000004,0.36300000000000004,0.0,0.018000000000000002,-0.051000000000000004
1670355895.5999959,-9.328,-0.289,4.627,-0.6533,-0.38630000000000003,0.3654,0.016,0.009000000000000001,-0.058
1670355895.639996,-9.308,-0.339,4.655,-0.6494,-0.386,0.3608,-0.001,0.018000000000000002,-0.058
1670355895.679996,-9.293000000000001,-0.334,4.605,-0.6626000000000001,-0.38920000000000005,0.3703,-0.007,0.012,-0.043000000000000003
1670355895.719995,-9.321,-0.28300000000000003,4.612,-0.6509,-0.388,0.36200000000000004,0.0,0.021,-0.044
1670355895.759995,-9.339,-0.259,4.619,-0.65,-0.3861,0.3629,0.013000000000000001,0.031,-0.054
1670355895.799995,-9.295,-0.31,4.619,-0.6515000000000001,-0.3871,0.3583,0.009000000000000001,0.016,-0.041
1670355895.839995,-9.311,-0.311,4.622,-0.6485000000000001,-0.38530000000000003,0.36260000000000003,0.01,0.012,-0.041
1670355895.879995,-9.347,-0.265,4.647,-0.6507000000000001,-0.3856,0.36100000000000004,0.01,0.009000000000000001,-0.052000000000000005
1670355895.919995,-9.301,-0.291,4.633,-0.6496000000000001,-0.3864,0.3613,0.009000000000000001,0.008,-0.056
1670355895.959995,-9.290000000000001,-0.317,4.6000000000000005,-0.6507000000000001,-0.3861,0.3644,0.001,0.014,-0.052000000000000005
1670355895.999995,-9.317,-0.327,4.639,-0.6499,-0.387,0.3618,0.0,0.017,-0.051000000000000004
1670355896.039995,-9.327,-0.318,4.618,-0.6499,-0.3864,0.36210000000000003,-0.009000000000000001,0.022,-0.048
1670355896.079995,-9.324,-0.309,4.628,-0.6505000000000001,-0.3825,0.366,-0.002,0.023,-0.052000000000000005
1670355896.119995,-9.296,-0.301,4.621,-0.6503,-0.38770000000000004,0.3634,-0.003,0.017,-0.055
1670355896.159995,-9.308,-0.315,4.595,-0.65,-0.38420000000000004,0.3629,0.001,0.012,-0.048
1670355896.199995,-9.303,-0.3,4.625,-0.649,-0.38370000000000004,0.36100000000000004,0.008,0.016,-0.045
1670355896.239995,-9.304,-0.3,4.606,-0.6512,-0.3824,0.36110000000000003,0.016,0.01,-0.048
1670355896.279995,-9.281,-0.337,4.616,-0.6507000000000001,-0.38670000000000004,0.3593,0.004,0.016,-0.049
1670355896.319995,-9.368,-0.307,4.631,-0.6476000000000001,-0.384,0.3642,0.007,0.024,-0.041
1670355896.359995,-9.365,-0.331,4.651,-0.6505000000000001,-0.38430000000000003,0.3598,0.011,0.027,-0.047
1670355896.3999949,-9.258000000000001,-0.28800000000000003,4.636,-0.6515000000000001,-0.3864,0.35960000000000003,0.002,0.021,-0.054
1670355896.439995,-9.269,-0.328,4.565,-0.6504,-0.38620000000000004,0.36410000000000003,0.0,0.011,-0.048
1670355896.479995,-9.339,-0.302,4.627,-0.6494,-0.3839,0.3612,0.004,0.012,-0.056
1670355896.519995,-9.315,-0.298,4.706,-0.6505000000000001,-0.3864,0.36160000000000003,0.013000000000000001,0.017,-0.063
1670355896.559995,-9.259,-0.382,4.662,-0.6489,-0.38630000000000003,0.3618,0.001,0.014,-0.061
1670355896.599995,-9.289,-0.274,4.609,-0.6474000000000001,-0.3849,0.3639,-0.002,0.011,-0.042
1670355896.6399949,-9.332,-0.34800000000000003,4.596,-0.6524,-0.38830000000000003,0.3599,0.005,0.026000000000000002,-0.049
1670355896.679995,-9.311,-0.269,4.612,-0.6502,-0.3856,0.3607,0.016,0.027,-0.058
1670355896.719995,-9.258000000000001,-0.309,4.624,-0.6501,-0.383,0.36060000000000003,0.017,0.018000000000000002,-0.045
1670355896.759995,-9.293000000000001,-0.301,4.6370000000000005,-0.6521,-0.38770000000000004,0.3613,0.009000000000000001,0.015,-0.047
1670355896.799995,-9.327,-0.28400000000000003,4.609,-0.6484,-0.38780000000000003,0.36460000000000004,0.009000000000000001,0.016,-0.058
1670355896.839994,-9.303,-0.325,4.63,-0.6501,-0.3874,0.3652,0.011,0.016,-0.055
1670355896.879994,-9.321,-0.312,4.599,-0.652,-0.388,0.3609,0.006,0.019,-0.053
1670355896.919994,-9.32,-0.319,4.616,-0.6498,-0.3859,0.36010000000000003,-0.003,0.018000000000000002,-0.051000000000000004
1670355896.959994,-9.306000000000001,-0.304,4.655,-0.6502,-0.3866,0.3628,0.0,0.02,-0.054
1670355896.999994,-9.306000000000001,-0.324,4.633,-0.6518,-0.38620000000000004,0.36210000000000003,0.0,0.018000000000000002,-0.057
1670355897.039994,-9.315,-0.317,4.614,-0.6477,-0.38630000000000003,0.3604,0.003,0.022,-0.056
1670355897.079994,-9.306000000000001,-0.296,4.63,-0.6505000000000001,-0.3861,0.3635,0.006,0.02,-0.046
1670355897.119994,-9.317,-0.305,4.621,-0.6485000000000001,-0.3851,0.3607,0.011,0.019,-0.05
1670355897.159994,-9.321,-0.341,4.585,-0.6508,-0.38380000000000003,0.3598,0.01,0.022,-0.058
1670355897.1999938,-9.286,-0.317,4.613,-0.6475000000000001,-0.3864,0.3613,0.007,0.015,-0.049
1670355897.239994,-9.355,-0.222,4.667,-0.6503,-0.3874,0.36200000000000004,0.008,0.014,-0.027
1670355897.279994,-9.287,-0.34500000000000003,4.57,-0.6491,-0.3876,0.36460000000000004,0.018000000000000002,0.022,-0.048
1670355897.319994,-9.278,-0.29,4.555,-0.6512,-0.3856,0.3637,0.01,0.032,-0.06
1670355897.359994,-9.278,-0.296,4.613,-0.6512,-0.3866,0.3556,0.0,0.015,-0.047
1670355897.399994,-9.297,-0.296,4.617,-0.6511,-0.3866,0.3556,-0.002,0.016,-0.057
1670355897.4399939,-9.309000000000001,-0.28600000000000003,4.617,-0.6498,-0.3866,0.3594,0.004,0.014,-0.055
1670355897.479994,-9.349,-0.29,4.643,-0.6501,-0.385,0.34890000000000004,0.0,0.02,-0.061
1670355897.519994,-9.305,-0.371,4.59,-0.6509,-0.3866,0.37010000000000004,0.0,0.023,-0.045
1670355897.559994,-9.294,-0.229,4.612,-0.6528,-0.38520000000000004,0.36200000000000004,0.0,0.022,-0.048
1670355897.599994,-9.329,-0.364,4.623,-0.6507000000000001,-0.3845,0.3537,0.006,0.029,-0.053
1670355897.639994,-9.298,-0.28300000000000003,4.587,-0.6493,-0.3864,0.3604,0.012,0.02,-0.051000000000000004
1670355897.6799939,-9.297,-0.311,4.609,-0.6642,-0.3901,0.36050000000000004,0.003,0.016,-0.045
1670355897.719994,-9.311,-0.29,4.58,-0.6479,-0.3871,0.3608,0.01,0.008,-0.054
1670355897.759994,-9.323,-0.279,4.615,-0.6519,-0.38720000000000004,0.3624,0.012,0.012,-0.058
1670355897.799994,-9.3,-0.321,4.603,-0.6519,-0.386,0.3622,0.002,0.015,-0.057
1670355897.839994,-9.296,-0.32,4.571,-0.659,-0.3906,0.3688,-0.003,0.014,-0.055
1670355897.879993,-9.332,-0.298,4.6450000000000005,-0.6487,-0.3859,0.36250000000000004,0.001,0.02,-0.051000000000000004
1670355897.919993,-9.313,-0.302,4.663,-0.6629,-0.38830000000000003,0.36150000000000004,0.005,0.02,-0.055
1670355897.959993,-9.321,-0.324,4.616,-0.6506000000000001,-0.3864,0.36210000000000003,0.004,0.016,-0.056
1670355897.9999928,-9.305,-0.31,4.616,-0.6507000000000001,-0.3855,0.3637,0.002,0.012,-0.048
1670355898.039993,-9.311,-0.3,4.665,-0.6512,-0.3846,0.35850000000000004,0.01,0.014,-0.049
1670355898.079993,-9.332,-0.262,4.603,-0.6508,-0.3856,0.3603,0.008,0.025,-0.052000000000000005
1670355898.119993,-9.308,-0.311,4.654,-0.6486000000000001,-0.38520000000000004,0.3637,0.014,0.018000000000000002,-0.056
1670355898.159993,-9.317,-0.337,4.6450000000000005,-0.651,-0.3855,0.3622,-0.003,0.018000000000000002,-0.044
1670355898.199993,-9.333,-0.324,4.6690000000000005,-0.6487,-0.38880000000000003,0.3623,-0.008,0.021,-0.04
1670355898.2399929,-9.376,-0.178,4.632,-0.649,-0.3849,0.36110000000000003,0.01,0.02,-0.055
1670355898.279993,-9.283,-0.367,4.604,-0.6491,-0.386,0.35950000000000004,0.008,0.024,-0.059000000000000004
1670355898.319993,-9.246,-0.321,4.546,-0.6505000000000001,-0.3856,0.3599,-0.005,0.025,-0.054
1670355898.359993,-9.296,-0.277,4.614,-0.6492,-0.38630000000000003,0.35900000000000004,-0.014,0.014,-0.044
1670355898.399993,-9.321,-0.298,4.635,-0.6479,-0.385,0.36060000000000003,0.001,0.009000000000000001,-0.055
1670355898.439993,-9.323,-0.32,4.675,-0.6503,-0.38630000000000003,0.36200000000000004,0.005,0.011,-0.061
1670355898.4799929,-9.281,-0.40800000000000003,4.63,-0.6479,-0.38720000000000004,0.36210000000000003,-0.007,0.011,-0.051000000000000004
1670355898.519993,-9.3,-0.232,4.604,-0.6496000000000001,-0.387,0.3617,0.0,0.022,-0.042
1670355898.559993,-9.3,-0.332,4.605,-0.6482,-0.38570000000000004,0.36460000000000004,0.009000000000000001,0.022,-0.054
1670355898.599993,-9.297,-0.313,4.616,-0.6479,-0.38480000000000003,0.36460000000000004,0.014,0.027,-0.055
1670355898.639993,-9.296,-0.301,4.586,-0.6476000000000001,-0.387,0.3628,0.006,0.019,-0.038
1670355898.679993,-9.316,-0.298,4.649,-0.651,-0.3835,0.3637,0.0,0.034,-0.037
1670355898.7199929,-9.306000000000001,-0.308,4.63,-0.6495000000000001,-0.38530000000000003,0.3628,0.003,0.015,-0.041
1670355898.759993,-9.265,-0.28300000000000003,4.582,-0.6493,-0.38680000000000003,0.36150000000000004,0.034,0.012,-0.055
1670355898.799993,-9.311,-0.263,4.606,-0.6501,-0.38670000000000004,0.3622,0.034,0.012,-0.063
1670355898.839993,-9.312,-0.356,4.606,-0.6501,-0.3844,0.36110000000000003,0.014,0.012,-0.05
1670355898.879993,-9.319,-0.294,4.606,-0.6499,-0.3839,0.3624,0.002,0.012,-0.04
1670355898.919992,-9.3,-0.263,4.624,-0.6505000000000001,-0.38730000000000003,0.36210000000000003,0.01,0.01,-0.049
1670355898.959992,-9.290000000000001,-0.28800000000000003,4.644,-0.6493,-0.3869,0.3635,0.011,0.014,-0.053
1670355898.999992,-9.294,-0.261,4.689,-0.6516000000000001,-0.387,0.364,0.0,0.013000000000000001,-0.048
1670355899.0399919,-9.305,-0.291,4.646,-0.6497,-0.38520000000000004,0.3614,0.0,0.025,-0.05
1670355899.079992,-9.33,-0.272,4.697,-0.6483,-0.3881,0.36260000000000003,0.003,0.027,-0.052000000000000005
1670355899.119992,-9.308,-0.28,4.668,-0.6516000000000001,-0.387,0.3634,0.009000000000000001,0.018000000000000002,-0.059000000000000004
1670355899.159992,-9.257,-0.331,4.631,-0.6502,-0.3864,0.36150000000000004,-0.005,0.031,-0.053
1670355899.199992,-9.364,-0.28300000000000003,4.649,-0.6488,-0.38680000000000003,0.3598,-0.012,0.037,-0.05
1670355899.239992,-9.393,-0.31,4.642,-0.6486000000000001,-0.3854,0.3609,-0.003,0.04,-0.053
1670355899.2799919,-9.26,-0.293,4.641,-0.6491,-0.3865,0.3609,-0.003,0.033,-0.059000000000000004
1670355899.319992,-9.306000000000001,-0.328,4.575,-0.6483,-0.3864,0.36410000000000003,-0.006,0.031,-0.053
1670355899.359992,-9.32,-0.304,4.59,-0.649,-0.38520000000000004,0.3634,-0.003,0.023,-0.063
1670355899.399992,-9.334,-0.297,4.612,-0.6483,-0.38570000000000004,0.3609,0.0,0.016,-0.062
1670355899.439992,-9.255,-0.34400000000000003,4.609,-0.6476000000000001,-0.38480000000000003,0.3614,-0.002,0.018000000000000002,-0.057
1670355899.479992,-9.297,-0.311,4.589,-0.6479,-0.3844,0.3619,-0.006,0.016,-0.05
1670355899.5199919,-9.34,-0.321,4.587,-0.649,-0.3849,0.34890000000000004,0.005,0.024,-0.045
1670355899.559992,-9.33,-0.28500000000000003,4.597,-0.6528,-0.38530000000000003,0.3654,0.02,0.027,-0.049
1670355899.599992,-9.33,-0.331,4.588,-0.6528,-0.3864,0.3668,0.024,0.019,-0.053
1670355899.639992,-9.269,-0.331,4.57,-0.6504,-0.3864,0.34190000000000004,0.018000000000000002,0.011,-0.038
1670355899.679992,-9.309000000000001,-0.301,4.57,-0.6506000000000001,-0.3861,0.34190000000000004,0.014,0.006,-0.046
1670355899.719992,-9.349,-0.271,4.594,-0.6502,-0.38770000000000004,0.3647,0.022,0.006,-0.052000000000000005
1670355899.759992,-9.294,-0.292,4.621,-0.6471,-0.3866,0.3639,0.014,0.012,-0.048
1670355899.799992,-9.312,-0.313,4.638,-0.6468,-0.38620000000000004,0.37160000000000004,0.001,0.014,-0.043000000000000003
1670355899.839992,-9.315,-0.28700000000000003,4.618,-0.6472,-0.3844,0.3603,0.003,0.025,-0.046
1670355899.879992,-9.328,-0.272,4.6000000000000005,-0.6501,-0.3846,0.3603,0.003,0.023,-0.057
1670355899.919992,-9.33,-0.291,4.627,-0.6592,-0.3866,0.36060000000000003,0.007,0.024,-0.051000000000000004
1670355899.959991,-9.302,-0.307,4.622,-0.6496000000000001,-0.38580000000000003,0.3645,0.001,0.014,-0.044
1670355899.999991,-9.306000000000001,-0.272,4.59,-0.654,-0.3844,0.3672,0.01,0.023,-0.054
1670355900.039991,-9.35,-0.262,4.5920000000000005,-0.6484,-0.38720000000000004,0.3629,0.014,0.024,-0.05
1670355900.0799909,-9.321,-0.28700000000000003,4.621,-0.6491,-0.3861,0.3604,0.013000000000000001,0.022,-0.052000000000000005
1670355900.119991,-9.308,-0.307,4.5760000000000005,-0.6509,-0.3841,0.3608,0.002,0.018000000000000002,-0.051000000000000004
1670355900.159991,-9.27,-0.317,4.561,-0.6467,-0.3865,0.3654,-0.003,0.019,-0.049
1670355900.199991,-9.314,-0.214,4.603,-0.6515000000000001,-0.3874,0.35950000000000004,0.013000000000000001,0.01,-0.046
1670355900.239991,-9.32,-0.363,4.573,-0.6509,-0.387,0.3624,0.016,0.016,-0.053
1670355900.279991,-9.291,-0.233,4.533,-0.6486000000000001,-0.38780000000000003,0.36060000000000003,0.003,0.02,-0.048
1670355900.3199909,-9.313,-0.292,4.551,-0.6504,-0.38580000000000003,0.3624,-0.006,0.015,-0.045
1670355900.359991,-9.313,-0.295,4.619,-0.6476000000000001,-0.38470000000000004,0.3618,0.006,0.011,-0.054
1670355900.399991,-9.363,-0.278,4.634,-0.6469,-0.38720000000000004,0.3593,0.011,0.016,-0.059000000000000004
1670355900.439991,-9.284,-0.335,4.588,-0.6511,-0.38680000000000003,0.3627,0.0,0.014,-0.06
1670355900.479991,-9.257,-0.244,4.602,-0.6493,-0.38620000000000004,0.3623,0.007,0.01,-0.04
1670355900.519991,-9.333,-0.362,4.578,-0.648,-0.3851,0.35960000000000003,0.013000000000000001,0.018000000000000002,-0.051000000000000004
1670355900.559991,-9.34,-0.23800000000000002,4.601,-0.6476000000000001,-0.38530000000000003,0.36360000000000003,0.016,0.022,-0.054
1670355900.599991,-9.291,-0.297,4.612,-0.649,-0.3866,0.3604,0.013000000000000001,0.01,-0.049
1670355900.639991,-9.324,-0.28700000000000003,4.598,-0.6482,-0.38670000000000004,0.3603,0.01,0.009000000000000001,-0.046
1670355900.679991,-9.348,-0.256,4.631,-0.6497,-0.3886,0.3632,0.012,0.008,-0.056
1670355900.719991,-9.331,-0.303,4.5840000000000005,-0.6484,-0.38680000000000003,0.36250000000000004,0.012,0.015,-0.054
1670355900.759991,-9.298,-0.298,4.589,-0.6487,-0.38520000000000004,0.3628,0.003,0.014,-0.05
1670355900.799991,-9.318,-0.28600000000000003,4.586,-0.6481,-0.38520000000000004,0.36310000000000003,-0.003,0.015,-0.048
1670355900.839991,-9.313,-0.271,4.6080000000000005,-0.6503,-0.386,0.3629,0.001,0.018000000000000002,-0.05
1670355900.879991,-9.329,-0.303,4.655,-0.6497,-0.3859,0.35950000000000004,0.0,0.014,-0.054
1670355900.919991,-9.308,-0.294,4.607,-0.6474000000000001,-0.3839,0.3637,-0.004,0.016,-0.05
1670355900.959991,-9.312,-0.301,4.6690000000000005,-0.6499,-0.38720000000000004,0.35900000000000004,0.001,0.012,-0.05
1670355900.99999,-9.283,-0.28700000000000003,4.607,-0.6472,-0.3875,0.36410000000000003,0.003,0.011,-0.053
1670355901.03999,-9.329,-0.28600000000000003,4.643,-0.6499,-0.3854,0.3619,0.017,0.017,-0.047
1670355901.07999,-9.317,-0.264,4.647,-0.6498,-0.3869,0.3632,0.015,0.022,-0.049
1670355901.1199899,-9.317,-0.307,4.631,-0.6493,-0.38420000000000004,0.3628,0.012,0.02,-0.052000000000000005
1670355901.15999,-9.348,-0.317,4.6000000000000005,-0.6481,-0.3845,0.364,0.0,0.02,-0.052000000000000005
1670355901.19999,-9.325000000000001,-0.303,4.621,-0.6494,-0.3839,0.3602,-0.01,0.014,-0.05
1670355901.23999,-9.366,-0.152,4.642,-0.6457,-0.3864,0.36060000000000003,0.01,0.015,-0.043000000000000003
1670355901.27999,-9.317,-0.33,4.566,-0.6489,-0.3859,0.36100000000000004,0.018000000000000002,0.023,-0.061
1670355901.31999,-9.290000000000001,-0.293,4.557,-0.649,-0.387,0.3617,0.0,0.025,-0.056
1670355901.35999,-9.305,-0.27,4.5920000000000005,-0.6498,-0.387,0.3635,0.0,0.014,-0.051000000000000004
1670355901.39999,-9.316,-0.272,4.646,-0.647,-0.388,0.36210000000000003,0.003,0.005,-0.052000000000000005
1670355901.43999,-9.348,-0.307,4.628,-0.6507000000000001,-0.3866,0.3617,0.005,0.008,-0.058
1670355901.47999,-9.271,-0.367,4.588,-0.6469,-0.387,0.3624,-0.002,0.014,-0.063
1670355901.51999,-9.305,-0.229,4.647,-0.649,-0.3839,0.3609,-0.006,0.013000000000000001,-0.049
1670355901.55999,-9.312,-0.319,4.591,-0.6489,-0.38720000000000004,0.3633,-0.003,0.022,-0.048
1670355901.59999,-9.307,-0.293,4.625,-0.6493,-0.3845,0.36100000000000004,0.004,0.028,-0.054
1670355901.63999,-9.293000000000001,-0.291,4.606,-0.6487,-0.38470000000000004,0.3645,0.004,0.024,-0.048
1670355901.67999,-9.298,-0.28400000000000003,4.594,-0.6488,-0.38780000000000003,0.3618,0.007,0.015,-0.046
1670355901.71999,-9.33,-0.296,4.603,-0.6485000000000001,-0.3849,0.3639,0.012,0.013000000000000001,-0.056
1670355901.75999,-9.278,-0.294,4.6000000000000005,-0.649,-0.387,0.3745,0.01,0.018000000000000002,-0.056
1670355901.79999,-9.301,-0.317,4.611,-0.6622,-0.39130000000000004,0.36260000000000003,0.0,0.014,-0.052000000000000005
1670355901.83999,-9.301,-0.317,4.603,-0.6622,-0.39130000000000004,0.3693,-0.003,0.019,-0.054
1670355901.87999,-9.32,-0.308,4.603,-0.6483,-0.3851,0.3693,-0.002,0.014,-0.05
1670355901.91999,-9.329,-0.306,4.64,-0.6557000000000001,-0.387,0.3532,-0.002,0.015,-0.047
1670355901.95999,-9.293000000000001,-0.307,4.64,-0.6527000000000001,-0.3855,0.378,0.003,0.016,-0.054
1670355901.99999,-9.313,-0.281,4.622,-0.6501,-0.3874,0.3624,0.003,0.018000000000000002,-0.056
1670355902.039989,-9.331,-0.308,4.644,-0.6512,-0.3856,0.3687,0.006,0.018000000000000002,-0.045
1670355902.079989,-9.297,-0.29,4.628,-0.6555000000000001,-0.387,0.3642,0.009000000000000001,0.021,-0.048
1670355902.119989,-9.329,-0.307,4.638,-0.6502,-0.3866,0.3614,0.013000000000000001,0.023,-0.052000000000000005
1670355902.1599889,-9.342,-0.28700000000000003,4.611,-0.6485000000000001,-0.3825,0.36160000000000003,0.009000000000000001,0.026000000000000002,-0.05
1670355902.199989,-9.297,-0.301,4.606,-0.6507000000000001,-0.3884,0.36260000000000003,0.001,0.019,-0.057
1670355902.239989,-9.278,-0.327,4.627,-0.652,-0.3865,0.3618,-0.001,0.011,-0.049
1670355902.279989,-9.335,-0.315,4.633,-0.649,-0.3865,0.36110000000000003,0.0,0.021,-0.041
1670355902.319989,-9.375,-0.252,4.63,-0.6485000000000001,-0.38570000000000004,0.36160000000000003,0.003,0.036000000000000004,-0.046
1670355902.359989,-9.273,-0.306,4.5760000000000005,-0.6482,-0.38430000000000003,0.36050000000000004,-0.003,0.027,-0.056
1670355902.399989,-9.25,-0.313,4.558,-0.6473,-0.3864,0.3603,0.002,0.02,-0.045
1670355902.439989,-9.314,-0.281,4.613,-0.651,-0.3855,0.36060000000000003,0.006,0.014,-0.056
1670355902.479989,-9.323,-0.28500000000000003,4.649,-0.6484,-0.3839,0.36200000000000004,0.008,0.011,-0.056
1670355902.519989,-9.32,-0.335,4.654,-0.6488,-0.3845,0.3608,0.0,0.017,-0.06
1670355902.559989,-9.348,-0.34500000000000003,4.638,-0.6484,-0.38580000000000003,0.3622,-0.006,0.021,-0.049
1670355902.599989,-9.336,-0.23800000000000002,4.61,-0.6482,-0.385,0.36150000000000004,0.003,0.033,-0.046
1670355902.639989,-9.349,-0.31,4.617,-0.6494,-0.3864,0.3603,0.01,0.034,-0.055
1670355902.679989,-9.264,-0.331,4.618,-0.6485000000000001,-0.38770000000000004,0.36200000000000004,0.01,0.019,-0.041
1670355902.719989,-9.289,-0.301,4.601,-0.6472,-0.3866,0.3612,0.007,0.01,-0.031
1670355902.759989,-9.328,-0.265,4.598,-0.6493,-0.38930000000000003,0.3594,0.018000000000000002,0.016,-0.052000000000000005
1670355902.799989,-9.302,-0.274,4.619,-0.6483,-0.3865,0.3603,0.026000000000000002,0.016,-0.057
1670355902.839989,-9.324,-0.32,4.63,-0.647,-0.3875,0.3617,0.008,0.017,-0.053
1670355902.879989,-9.317,-0.298,4.615,-0.65,-0.386,0.3623,0.0,0.019,-0.047
1670355902.919989,-9.323,-0.28500000000000003,4.579,-0.6488,-0.3845,0.3599,0.003,0.026000000000000002,-0.048
1670355902.959989,-9.315,-0.28800000000000003,4.62,-0.6487,-0.3861,0.3598,0.0,0.026000000000000002,-0.05
1670355902.999989,-9.316,-0.297,4.618,-0.6484,-0.3864,0.36110000000000003,0.0,0.015,-0.05
1670355903.039989,-9.327,-0.3,4.6080000000000005,-0.648,-0.3904,0.3613,0.0,0.018000000000000002,-0.053
1670355903.079988,-9.317,-0.257,4.612,-0.651,-0.387,0.3623,0.011,0.018000000000000002,-0.046
1670355903.119988,-9.328,-0.28700000000000003,4.596,-0.6493,-0.38580000000000003,0.36050000000000004,0.012,0.021,-0.047
1670355903.159988,-9.291,-0.294,4.622,-0.6457,-0.38680000000000003,0.3592,0.016,0.023,-0.052000000000000005
1670355903.199988,-9.306000000000001,-0.309,4.63,-0.6497,-0.3875,0.3582,0.007,0.025,-0.053
1670355903.239988,-9.267,-0.296,4.603,-0.649,-0.38520000000000004,0.36300000000000004,-0.002,0.014,-0.053
1670355903.279988,-9.311,-0.241,4.616,-0.6497,-0.38530000000000003,0.3609,0.007,0.013000000000000001,-0.035
1670355903.319988,-9.318,-0.36,4.583,-0.6489,-0.3864,0.3593,0.001,0.03,-0.052000000000000005
1670355903.359988,-9.267,-0.241,4.575,-0.6471,-0.385,0.36260000000000003,0.005,0.028,-0.055
1670355903.399988,-9.31,-0.31,4.613,-0.6494,-0.3859,0.36260000000000003,-0.006,0.022,-0.044
1670355903.439988,-9.284,-0.279,4.585,-0.6493,-0.38480000000000003,0.3643,0.001,0.017,-0.054
1670355903.479988,-9.343,-0.277,4.6370000000000005,-0.6487,-0.3864,0.35850000000000004,0.012,0.013000000000000001,-0.054
1670355903.519988,-9.312,-0.325,4.597,-0.6499,-0.3856,0.36360000000000003,0.0,0.016,-0.054
1670355903.559988,-9.233,-0.26,4.585,-0.6493,-0.3874,0.36100000000000004,-0.008,0.016,-0.047
1670355903.599988,-9.306000000000001,-0.316,4.578,-0.6495000000000001,-0.38580000000000003,0.3613,0.007,0.024,-0.043000000000000003
1670355903.639988,-9.345,-0.23700000000000002,4.646,-0.6479,-0.38680000000000003,0.36310000000000003,0.007,0.029,-0.057
1670355903.679988,-9.269,-0.28300000000000003,4.61,-0.6476000000000001,-0.38480000000000003,0.3629,0.008,0.022,-0.047
1670355903.719988,-9.327,-0.293,4.6000000000000005,-0.6488,-0.384,0.36210000000000003,0.005,0.017,-0.046
1670355903.759988,-9.323,-0.266,4.648,-0.6487,-0.3869,0.36160000000000003,0.015,0.014,-0.05
1670355903.799988,-9.315,-0.307,4.628,-0.6487,-0.38580000000000003,0.3648,0.012,0.008,-0.055
1670355903.839988,-9.308,-0.298,4.578,-0.648,-0.38530000000000003,0.3622,0.0,0.012,-0.047
1670355903.879988,-9.299,-0.301,4.6080000000000005,-0.6512,-0.38530000000000003,0.3584,-0.009000000000000001,0.015,-0.048
1670355903.919988,-9.328,-0.268,4.601,-0.6467,-0.3869,0.36060000000000003,-0.002,0.019,-0.051000000000000004
1670355903.959988,-9.305,-0.301,4.621,-0.651,-0.38720000000000004,0.36810000000000004,-0.004,0.024,-0.057
1670355903.999988,-9.318,-0.304,4.57,-0.6489,-0.38770000000000004,0.35350000000000004,0.0,0.016,-0.053
1670355904.039988,-9.318,-0.291,4.631,-0.6607000000000001,-0.3899,0.385,0.006,0.017,-0.05
1670355904.079988,-9.315,-0.291,4.588,-0.6607000000000001,-0.3899,0.385,0.008,0.018000000000000002,-0.043000000000000003
1670355904.119987,-9.33,-0.28,4.588,-0.6528,-0.385,0.3587,0.006,0.024,-0.048
1670355904.159987,-9.34,-0.293,4.606,-0.6495000000000001,-0.3886,0.3642,0.014,0.027,-0.055
1670355904.199987,-9.309000000000001,-0.293,4.572,-0.6483,-0.3856,0.3497,0.003,0.02,-0.053
1670355904.239987,-9.23,-0.306,4.586,-0.6496000000000001,-0.3871,0.34090000000000004,-0.012,0.023,-0.038
1670355904.279987,-9.308,-0.23600000000000002,4.6080000000000005,-0.6481,-0.3885,0.3618,0.016,0.017,-0.053
1670355904.319987,-9.356,-0.327,4.526,-0.6474000000000001,-0.3865,0.35950000000000004,0.016,0.024,-0.067
1670355904.359987,-9.318,-0.262,4.607,-0.6485000000000001,-0.38430000000000003,0.3623,0.005,0.022,-0.058
1670355904.399987,-9.312,-0.32,4.579,-0.6502,-0.38880000000000003,0.3609,-0.008,0.019,-0.042
1670355904.439987,-9.309000000000001,-0.28,4.597,-0.6483,-0.38630000000000003,0.36150000000000004,0.007,0.017,-0.051000000000000004
1670355904.479987,-9.339,-0.25,4.638,-0.6521,-0.3849,0.3613,0.018000000000000002,0.016,-0.058
1670355904.519987,-9.305,-0.311,4.627,-0.6496000000000001,-0.38680000000000003,0.3639,-0.005,0.02,-0.061
1670355904.559987,-9.271,-0.298,4.577,-0.6482,-0.3864,0.36060000000000003,-0.005,0.012,-0.045
1670355904.599987,-9.339,-0.307,4.6000000000000005,-0.6496000000000001,-0.3864,0.3588,0.0,0.027,-0.051000000000000004
1670355904.639987,-9.341000000000001,-0.25,4.566,-0.6494,-0.3861,0.3604,0.009000000000000001,0.024,-0.058
1670355904.679987,-9.303,-0.305,4.582,-0.6476000000000001,-0.3844,0.3603,0.005,0.016,-0.051000000000000004
1670355904.719987,-9.332,-0.301,4.5760000000000005,-0.6483,-0.38620000000000004,0.3608,0.006,0.01,-0.053
1670355904.759987,-9.329,-0.253,4.596,-0.6485000000000001,-0.3836,0.36110000000000003,0.003,0.007,-0.057
1670355904.799987,-9.327,-0.304,4.597,-0.6524,-0.38770000000000004,0.3652,-0.003,0.012,-0.057
1670355904.839987,-9.337,-0.316,4.5760000000000005,-0.6457,-0.3839,0.3604,-0.003,0.011,-0.058
1670355904.879987,-9.312,-0.31,4.586,-0.6492,-0.3864,0.3614,-0.005,0.009000000000000001,-0.046
1670355904.919987,-9.322000000000001,-0.336,4.57,-0.6517000000000001,-0.386,0.36060000000000003,0.0,0.018000000000000002,-0.056
1670355904.959987,-9.324,-0.316,4.639,-0.6487,-0.3846,0.3592,0.0,0.016,-0.058
1670355904.999987,-9.301,-0.331,4.633,-0.651,-0.38480000000000003,0.36150000000000004,0.001,0.016,-0.051000000000000004
1670355905.0399868,-9.307,-0.305,4.623,-0.6594,-0.38830000000000003,0.3714,0.004,0.014,-0.053
1670355905.079987,-9.344,-0.293,4.609,-0.6477,-0.38220000000000004,0.3609,0.013000000000000001,0.014,-0.049
1670355905.119987,-9.296,-0.32,4.61,-0.6507000000000001,-0.384,0.36200000000000004,0.011,0.017,-0.05
1670355905.159986,-9.318,-0.325,4.588,-0.6491,-0.38470000000000004,0.3632,0.005,0.02,-0.052000000000000005
1670355905.199986,-9.318,-0.298,4.636,-0.6473,-0.3839,0.36060000000000003,0.0,0.017,-0.046
1670355905.239986,-9.348,-0.26,4.606,-0.6505000000000001,-0.38480000000000003,0.36210000000000003,0.009000000000000001,0.016,-0.043000000000000003
1670355905.279986,-9.293000000000001,-0.384,4.5680000000000005,-0.6491,-0.38670000000000004,0.35800000000000004,0.008,0.027,-0.056
1670355905.319986,-9.268,-0.28300000000000003,4.579,-0.6487,-0.3881,0.36100000000000004,-0.003,0.021,-0.047
1670355905.359986,-9.318,-0.292,4.55,-0.6483,-0.383,0.35860000000000003,-0.007,0.015,-0.051000000000000004
1670355905.399986,-9.339,-0.307,4.631,-0.6493,-0.38630000000000003,0.3588,0.0,0.009000000000000001,-0.053
1670355905.439986,-9.342,-0.325,4.642,-0.6461,-0.38420000000000004,0.3633,0.001,0.011,-0.056
1670355905.479986,-9.303,-0.396,4.577,-0.6472,-0.38530000000000003,0.3618,-0.005,0.016,-0.053
1670355905.519986,-9.285,-0.245,4.609,-0.6489,-0.38420000000000004,0.3618,0.0,0.016,-0.045
1670355905.559986,-9.326,-0.362,4.5920000000000005,-0.6478,-0.3834,0.35960000000000003,0.002,0.027,-0.056
1670355905.599986,-9.313,-0.308,4.599,-0.6485000000000001,-0.3849,0.3578,0.004,0.021,-0.051000000000000004
1670355905.639986,-9.281,-0.333,4.603,-0.6498,-0.3851,0.36010000000000003,0.012,0.011,-0.041
1670355905.679986,-9.331,-0.299,4.605,-0.6492,-0.38670000000000004,0.3623,0.011,0.009000000000000001,-0.05
1670355905.719986,-9.304,-0.307,4.613,-0.6465000000000001,-0.3856,0.36110000000000003,0.009000000000000001,0.012,-0.053
1670355905.759986,-9.295,-0.343,4.589,-0.6497,-0.38520000000000004,0.3632,0.006,0.01,-0.058
1670355905.799986,-9.32,-0.311,4.634,-0.6488,-0.38430000000000003,0.35950000000000004,0.0,0.013000000000000001,-0.043000000000000003
1670355905.8399858,-9.307,-0.322,4.569,-0.6479,-0.38530000000000003,0.3579,0.0,0.022,-0.051000000000000004
1670355905.879986,-9.32,-0.332,4.617,-0.6478,-0.3836,0.36000000000000004,0.0,0.02,-0.054
1670355905.919986,-9.283,-0.319,4.6000000000000005,-0.648,-0.38380000000000003,0.3618,0.0,0.025,-0.058
1670355905.959986,-9.335,-0.326,4.6450000000000005,-0.6457,-0.38420000000000004,0.3634,0.005,0.015,-0.047
1670355905.999986,-9.303,-0.311,4.64,-0.6487,-0.3859,0.3593,0.009000000000000001,0.019,-0.047
1670355906.039986,-9.298,-0.308,4.61,-0.6504,-0.38580000000000003,0.36150000000000004,0.017,0.02,-0.056
1670355906.0799859,-9.275,-0.356,4.626,-0.6485000000000001,-0.3856,0.36200000000000004,0.001,0.022,-0.05
1670355906.119986,-9.382,-0.334,4.643,-0.6514,-0.3874,0.3662,-0.001,0.02,-0.05
1670355906.159986,-9.399000000000001,-0.297,4.628,-0.6484,-0.3845,0.3574,0.024,0.013000000000000001,-0.039
1670355906.199986,-9.281,-0.281,4.561,-0.6491,-0.3859,0.37470000000000003,0.012,0.019,-0.056
1670355906.239986,-9.318,-0.326,4.601,-0.6519,-0.38330000000000003,0.3695,0.006,0.016,-0.05
1670355906.279985,-9.318,-0.326,4.598,-0.6519,-0.38330000000000003,0.3667,0.0,0.019,-0.053
1670355906.319985,-9.303,-0.292,4.598,-0.6481,-0.38530000000000003,0.3667,0.004,0.007,-0.062
1670355906.359985,-9.315,-0.308,4.642,-0.6504,-0.3849,0.3659,0.006,0.016,-0.054
1670355906.399985,-9.297,-0.335,4.627,-0.6515000000000001,-0.38530000000000003,0.3659,0.0,0.015,-0.059000000000000004
1670355906.439985,-9.294,-0.32,4.601,-0.6478,-0.38470000000000004,0.36610000000000004,0.004,0.023,-0.051000000000000004
1670355906.479985,-9.302,-0.319,4.587,-0.6502,-0.3836,0.36250000000000004,0.01,0.023,-0.053
1670355906.519985,-9.327,-0.29,4.602,-0.6477,-0.3844,0.36110000000000003,0.013000000000000001,0.023,-0.055
1670355906.559985,-9.307,-0.34400000000000003,4.6370000000000005,-0.6515000000000001,-0.3854,0.36150000000000004,0.011,0.013000000000000001,-0.043000000000000003
1670355906.599985,-9.294,-0.319,4.64,-0.6469,-0.3844,0.36010000000000003,0.011,0.006,-0.047
1670355906.6399848,-9.311,-0.28800000000000003,4.636,-0.6488,-0.3835,0.3593,0.02,0.014,-0.052000000000000005
1670355906.679985,-9.324,-0.341,4.59,-0.6493,-0.3841,0.35950000000000004,0.011,0.014,-0.057
1670355906.719985,-9.316,-0.332,4.631,-0.649,-0.3834,0.35950000000000004,0.002,0.017,-0.05
1670355906.759985,-9.284,-0.31,4.5920000000000005,-0.6481,-0.3831,0.36000000000000004,0.003,0.017,-0.048
1670355906.799985,-9.324,-0.301,4.628,-0.6489,-0.3841,0.35810000000000003,0.003,0.022,-0.054
1670355906.839985,-9.305,-0.336,4.61,-0.6484,-0.38630000000000003,0.3597,0.008,0.021,-0.056
1670355906.8799849,-9.291,-0.316,4.591,-0.6523,-0.3816,0.3618,0.0,0.023,-0.048
1670355906.919985,-9.291,-0.305,4.62,-0.6515000000000001,-0.388,0.3617,0.009000000000000001,0.012,-0.044
1670355906.959985,-9.326,-0.28800000000000003,4.585,-0.6584,-0.3895,0.3693,0.014,0.018000000000000002,-0.046
1670355906.999985,-9.306000000000001,-0.294,4.627,-0.6485000000000001,-0.38630000000000003,0.36310000000000003,0.013000000000000001,0.018000000000000002,-0.047
1670355907.039985,-9.333,-0.311,4.644,-0.6479,-0.386,0.3632,0.01,0.018000000000000002,-0.054
1670355907.079985,-9.258000000000001,-0.34400000000000003,4.613,-0.6483,-0.3855,0.3607,-0.001,0.01,-0.048
1670355907.1199849,-9.302,-0.295,4.6000000000000005,-0.6485000000000001,-0.3859,0.3628,0.003,0.008,-0.032
1670355907.159985,-9.378,-0.319,4.616,-0.6529,-0.3875,0.3645,0.014,0.02,-0.056
1670355907.199985,-9.298,-0.256,4.6000000000000005,-0.6513,-0.3849,0.3612,0.012,0.018000000000000002,-0.059000000000000004
1670355907.239985,-9.297,-0.34700000000000003,4.575,-0.6483,-0.38370000000000004,0.3599,-0.005,0.017,-0.046
1670355907.279985,-9.305,-0.299,4.63,-0.6511,-0.3834,0.3594,-0.001,0.02,-0.046
1670355907.319984,-9.35,-0.291,4.703,-0.6485000000000001,-0.38580000000000003,0.36110000000000003,0.017,0.022,-0.054
1670355907.359984,-9.294,-0.274,4.632,-0.6477,-0.3856,0.3634,0.03,0.027,-0.065
1670355907.399984,-9.281,-0.379,4.553,-0.651,-0.38620000000000004,0.3602,0.003,0.009000000000000001,-0.053
1670355907.4399838,-9.381,-0.323,4.6080000000000005,-0.649,-0.38630000000000003,0.36050000000000004,-0.009000000000000001,0.02,-0.032
1670355907.479984,-9.34,-0.198,4.643,-0.6481,-0.38480000000000003,0.3628,0.009000000000000001,0.026000000000000002,-0.049
1670355907.519984,-9.307,-0.301,4.594,-0.6491,-0.38430000000000003,0.3598,0.02,0.02,-0.056
1670355907.559984,-9.294,-0.337,4.597,-0.649,-0.38580000000000003,0.36150000000000004,0.013000000000000001,0.005,-0.046
1670355907.599984,-9.328,-0.298,4.612,-0.6467,-0.38570000000000004,0.36100000000000004,-0.001,0.007,-0.047
1670355907.639984,-9.295,-0.281,4.627,-0.6478,-0.38580000000000003,0.36250000000000004,0.005,0.014,-0.052000000000000005
1670355907.6799839,-9.309000000000001,-0.312,4.606,-0.6502,-0.3859,0.3617,-0.005,0.01,-0.051000000000000004
1670355907.719984,-9.314,-0.328,4.624,-0.6471,-0.385,0.36160000000000003,-0.012,0.016,-0.05
1670355907.759984,-9.302,-0.303,4.6370000000000005,-0.6469,-0.3844,0.3623,-0.007,0.022,-0.047
1670355907.799984,-9.334,-0.293,4.6450000000000005,-0.6493,-0.3836,0.36150000000000004,-0.001,0.021,-0.051000000000000004
1670355907.839984,-9.303,-0.308,4.624,-0.6472,-0.38630000000000003,0.3612,0.003,0.017,-0.055
1670355907.879984,-9.304,-0.319,4.6450000000000005,-0.6465000000000001,-0.38420000000000004,0.364,0.0,0.022,-0.05
1670355907.9199839,-9.309000000000001,-0.294,4.595,-0.6506000000000001,-0.38630000000000003,0.3609,0.004,0.017,-0.047
1670355907.959984,-9.319,-0.303,4.6450000000000005,-0.6488,-0.38780000000000003,0.3612,0.007,0.014,-0.047
1670355907.999984,-9.321,-0.29,4.606,-0.6485000000000001,-0.38720000000000004,0.3617,0.011,0.019,-0.058
1670355908.039984,-9.305,-0.319,4.627,-0.649,-0.385,0.3624,0.011,0.017,-0.059000000000000004
1670355908.079984,-9.294,-0.34500000000000003,4.611,-0.6494,-0.3845,0.3604,-0.001,0.017,-0.049
1670355908.119984,-9.338000000000001,-0.333,4.625,-0.6488,-0.38520000000000004,0.36100000000000004,-0.006,0.014,-0.055
1670355908.1599839,-9.406,-0.226,4.657,-0.6515000000000001,-0.385,0.3639,0.013000000000000001,0.014,-0.043000000000000003
1670355908.199984,-9.329,-0.31,4.5840000000000005,-0.651,-0.3869,0.3612,0.013000000000000001,0.023,-0.055
1670355908.239984,-9.279,-0.33,4.579,-0.6471,-0.38420000000000004,0.3663,0.007,0.027,-0.054
1670355908.279984,-9.311,-0.306,4.624,-0.6492,-0.386,0.3618,-0.002,0.015,-0.045
1670355908.319984,-9.318,-0.265,4.6770000000000005,-0.6494,-0.3845,0.3603,0.004,0.012,-0.054
1670355908.359983,-9.343,-0.334,4.631,-0.6498,-0.3846,0.3614,0.01,0.009000000000000001,-0.059000000000000004
1670355908.399983,-9.296,-0.404,4.63,-0.6491,-0.3835,0.3539,-0.009000000000000001,0.008,-0.066
1670355908.439983,-9.327,-0.246,4.651,-0.6525000000000001,-0.3834,0.3653,-0.011,0.009000000000000001,-0.043000000000000003
1670355908.4799829,-9.327,-0.319,4.6290000000000004,-0.6525000000000001,-0.3839,0.39690000000000003,0.0,0.014,-0.047
1670355908.519983,-9.312,-0.319,4.624,-0.6487,-0.3839,0.39690000000000003,0.011,0.023,-0.054
1670355908.559983,-9.315,-0.321,4.624,-0.6504,-0.38530000000000003,0.3471,0.008,0.015,-0.044
1670355908.599983,-9.273,-0.301,4.621,-0.6497,-0.3864,0.36810000000000004,0.001,0.013000000000000001,-0.042
1670355908.639983,-9.296,-0.313,4.618,-0.647,-0.38630000000000003,0.375,0.008,0.0,-0.056
1670355908.679983,-9.305,-0.303,4.615,-0.6476000000000001,-0.3825,0.3476,0.007,0.009000000000000001,-0.06
1670355908.7199829,-9.27,-0.332,4.6370000000000005,-0.6496000000000001,-0.3856,0.3598,0.001,0.002,-0.044
1670355908.759983,-9.293000000000001,-0.328,4.621,-0.6487,-0.3845,0.3633,-0.002,0.004,-0.05
1670355908.799983,-9.303,-0.324,4.655,-0.6504,-0.38330000000000003,0.36210000000000003,0.001,0.009000000000000001,-0.055
1670355908.839983,-9.294,-0.311,4.665,-0.6499,-0.38730000000000003,0.36310000000000003,0.004,0.018000000000000002,-0.055
1670355908.879983,-9.293000000000001,-0.335,4.682,-0.6514,-0.38720000000000004,0.3635,0.005,0.004,-0.048
1670355908.919983,-9.297,-0.331,4.656,-0.6537000000000001,-0.387,0.3649,0.003,0.009000000000000001,-0.047
1670355908.9599829,-9.289,-0.304,4.671,-0.656,-0.3906,0.37470000000000003,0.009000000000000001,0.015,-0.052000000000000005
1670355908.999983,-9.273,-0.329,4.659,-0.6501,-0.3851,0.364,0.012,0.018000000000000002,-0.055
1670355909.039983,-9.276,-0.325,4.6610000000000005,-0.659,-0.38820000000000005,0.36560000000000004,0.002,0.008,-0.052000000000000005
1670355909.079983,-9.27,-0.316,4.659,-0.6505000000000001,-0.38380000000000003,0.3632,0.001,0.017,-0.044
1670355909.119983,-9.33,-0.26,4.688,-0.6534,-0.3871,0.36760000000000004,0.009000000000000001,0.021,-0.048
1670355909.159983,-9.283,-0.389,4.655,-0.6495000000000001,-0.38370000000000004,0.3629,0.004,0.023,-0.059000000000000004
1670355909.199983,-9.242,-0.307,4.613,-0.6622,-0.3905,0.3698,-0.001,0.016,-0.049
1670355909.239983,-9.267,-0.296,4.65,-0.6543,-0.3834,0.3623,-0.006,0.016,-0.049
1670355909.279983,-9.296,-0.316,4.636,-0.6491,-0.3839,0.3624,0.007,0.009000000000000001,-0.059000000000000004
1670355909.319983,-9.31,-0.325,4.682,-0.6508,-0.3854,0.3609,0.004,0.012,-0.054
1670355909.359983,-9.238,-0.398,4.668,-0.6499,-0.38330000000000003,0.36200000000000004,-0.001,0.009000000000000001,-0.048
1670355909.399982,-9.251,-0.259,4.7010000000000005,-0.6501,-0.38380000000000003,0.3637,0.005,0.015,-0.044
1670355909.439982,-9.3,-0.362,4.688,-0.6492,-0.3831,0.3617,0.011,0.027,-0.06
1670355909.479982,-9.272,-0.313,4.646,-0.651,-0.3851,0.3635,0.015,0.026000000000000002,-0.05
1670355909.5199819,-9.266,-0.326,4.708,-0.6474000000000001,-0.38480000000000003,0.3643,0.001,0.013000000000000001,-0.039
1670355909.559982,-9.290000000000001,-0.291,4.64,-0.6518,-0.38530000000000003,0.3628,0.0,0.014,-0.053
1670355909.599982,-9.303,-0.307,4.666,-0.6479,-0.3859,0.3648,0.01,0.017,-0.058
1670355909.639982,-9.296,-0.334,4.7010000000000005,-0.6474000000000001,-0.3845,0.3635,0.01,0.018000000000000002,-0.056
1670355909.679982,-9.27,-0.302,4.664,-0.6487,-0.3859,0.3629,0.0,0.026000000000000002,-0.049
1670355909.719982,-9.276,-0.327,4.636,-0.6503,-0.385,0.36160000000000003,0.004,0.026000000000000002,-0.052000000000000005
1670355909.7599819,-9.272,-0.318,4.624,-0.651,-0.38420000000000004,0.36150000000000004,0.002,0.025,-0.049
1670355909.799982,-9.309000000000001,-0.343,4.6290000000000004,-0.6513,-0.3841,0.3618,-0.001,0.019,-0.049
1670355909.839982,-9.299,-0.302,4.6290000000000004,-0.6511,-0.385,0.3627,0.003,0.02,-0.05
1670355909.879982,-9.286,-0.296,4.644,-0.6505000000000001,-0.383,0.3588,0.012,0.017,-0.052000000000000005
1670355909.919982,-9.279,-0.378,4.66,-0.648,-0.3861,0.36210000000000003,0.011,0.017,-0.045
1670355909.959982,-9.294,-0.334,4.658,-0.6496000000000001,-0.3845,0.3623,0.005,0.021,-0.045
1670355909.9999819,-9.369,-0.228,4.703,-0.6487,-0.3859,0.3618,0.021,0.012,-0.045
1670355910.039982,-9.247,-0.34700000000000003,4.622,-0.6499,-0.38280000000000003,0.3623,0.015,0.029,-0.052000000000000005
1670355910.079982,-9.233,-0.337,4.612,-0.6504,-0.3841,0.3597,0.004,0.018000000000000002,-0.057
1670355910.119982,-9.309000000000001,-0.272,4.643,-0.6488,-0.3846,0.3623,0.0,0.015,-0.046
1670355910.159982,-9.312,-0.31,4.697,-0.6485000000000001,-0.3866,0.36260000000000003,0.003,0.012,-0.057
1670355910.199982,-9.296,-0.34400000000000003,4.652,-0.6546000000000001,-0.38520000000000004,0.3613,0.005,0.011,-0.054
1670355910.239982,-9.312,-0.38,4.654,-0.6499,-0.38670000000000004,0.3613,0.0,0.014,-0.054
1670355910.279982,-9.321,-0.249,4.676,-0.6502,-0.385,0.3645,0.002,0.025,-0.048
1670355910.319982,-9.322000000000001,-0.32,4.638,-0.6496000000000001,-0.38480000000000003,0.3639,0.005,0.028,-0.054
1670355910.359982,-9.27,-0.332,4.659,-0.6506000000000001,-0.38420000000000004,0.3647,0.009000000000000001,0.031,-0.053
1670355910.399982,-9.271,-0.331,4.66,-0.6496000000000001,-0.3834,0.3618,0.007,0.019,-0.046
1670355910.439981,-9.314,-0.28600000000000003,4.6370000000000005,-0.6491,-0.38630000000000003,0.365,0.001,0.017,-0.052000000000000005
1670355910.479981,-9.311,-0.313,4.652,-0.6497,-0.3859,0.36260000000000003,0.012,0.011,-0.058
1670355910.519981,-9.272,-0.338,4.62,-0.6486000000000001,-0.3844,0.3643,0.006,0.008,-0.052000000000000005
1670355910.5599809,-9.291,-0.326,4.607,-0.651,-0.38530000000000003,0.364,0.0,0.016,-0.05
1670355910.599981,-9.309000000000001,-0.311,4.6450000000000005,-0.6461,-0.3845,0.3594,0.005,0.012,-0.05
1670355910.639981,-9.290000000000001,-0.317,4.688,-0.6488,-0.3861,0.3629,-0.001,0.018000000000000002,-0.05
1670355910.679981,-9.27,-0.326,4.6690000000000005,-0.6498,-0.38720000000000004,0.3841,0.012,0.011,-0.051000000000000004
1670355910.719981,-9.27,-0.327,4.6690000000000005,-0.6498,-0.38480000000000003,0.39830000000000004,0.004,0.017,-0.047
1670355910.759981,-9.294,-0.327,4.6690000000000005,-0.6515000000000001,-0.38480000000000003,0.39830000000000004,0.011,0.016,-0.053
1670355910.7999809,-9.314,-0.303,4.66,-0.6516000000000001,-0.3869,0.3623,0.008,0.019,-0.054
1670355910.839981,-9.26,-0.357,4.655,-0.6508,-0.38480000000000003,0.37010000000000004,0.0,0.02,-0.052000000000000005
1670355910.879981,-9.311,-0.32,4.639,-0.6544,-0.38430000000000003,0.364,0.012,0.013000000000000001,-0.037
1670355910.919981,-9.351,-0.281,4.66,-0.6487,-0.3859,0.3635,0.014,0.022,-0.062
1670355910.959981,-9.268,-0.295,4.648,-0.6502,-0.3835,0.3645,0.007,0.02,-0.056
1670355910.999981,-9.257,-0.37,4.602,-0.6494,-0.38580000000000003,0.36460000000000004,-0.008,0.017,-0.046
1670355911.039981,-9.279,-0.3,4.631,-0.6638000000000001,-0.3891,0.3632,-0.003,0.01,-0.052000000000000005
1670355911.079981,-9.306000000000001,-0.293,4.663,-0.6513,-0.38620000000000004,0.3623,0.011,0.01,-0.055
1670355911.119981,-9.326,-0.335,4.676,-0.6539,-0.3875,0.364,0.002,0.017,-0.056
1670355911.159981,-9.281,-0.366,4.657,-0.6512,-0.38530000000000003,0.3624,-0.01,0.036000000000000004,-0.036000000000000004
1670355911.199981,-9.277000000000001,-0.361,4.675,-0.6648000000000001,-0.3917,0.37070000000000003,-0.009000000000000001,0.029,-0.027
1670355911.239981,-9.36,-0.2,4.665,-0.6491,-0.38630000000000003,0.36200000000000004,0.034,0.023,-0.063
1670355911.279981,-9.278,-0.305,4.618,-0.6532,-0.3841,0.3664,0.042,0.007,-0.062
1670355911.319981,-9.262,-0.316,4.609,-0.6493,-0.3834,0.3665,0.023,-0.001,-0.051000000000000004
1670355911.359981,-9.31,-0.295,4.621,-0.6494,-0.38470000000000004,0.3607,0.011,0.0,-0.049
1670355911.399981,-9.327,-0.302,4.643,-0.6522,-0.3859,0.3627,0.013000000000000001,0.0,-0.056
1670355911.439981,-9.277000000000001,-0.314,4.696,-0.6496000000000001,-0.38730000000000003,0.3623,0.007,0.007,-0.059000000000000004
1670355911.399981,-9.27,-0.322,4.658,-0.6487,-0.3866,0.3613,-0.006,0.011,-0.053
1670355911.439981,-9.261000000000001,-0.298,4.695,-0.6516000000000001,-0.38670000000000004,0.3627,-0.005,0.01,-0.05
1670355911.47998,-9.283,-0.3,4.751,-0.651,-0.3869,0.3622,-0.005,0.012,-0.061
1670355911.51998,-9.273,-0.32,4.7090000000000005,-0.6504,-0.3845,0.36010000000000003,0.0,0.009000000000000001,-0.051000000000000004
1670355911.55998,-9.281,-0.331,4.6850000000000005,-0.6494,-0.3856,0.36110000000000003,-0.004,0.017,-0.05
1670355911.5999799,-9.287,-0.311,4.731,-0.6498,-0.38580000000000003,0.3653,0.0,0.023,-0.047
1670355911.63998,-9.284,-0.332,4.696,-0.6504,-0.3889,0.3634,0.0,0.026000000000000002,-0.049
1670355911.67998,-9.291,-0.298,4.665,-0.6513,-0.3845,0.3629,0.0,0.026000000000000002,-0.051000000000000004
1670355911.71998,-9.262,-0.322,4.703,-0.6507000000000001,-0.38520000000000004,0.3635,-0.008,0.024,-0.057
1670355911.75998,-9.265,-0.34500000000000003,4.644,-0.6486000000000001,-0.38430000000000003,0.3637,-0.017,0.024,-0.054
1670355911.79998,-9.327,-0.359,4.712,-0.6495000000000001,-0.3851,0.3607,-0.023,0.026000000000000002,-0.049
1670355911.83998,-9.386000000000001,-0.244,4.72,-0.6482,-0.3845,0.3617,0.0,0.027,-0.051000000000000004
1670355911.87998,-9.28,-0.337,4.6370000000000005,-0.6499,-0.3844,0.3623,0.004,0.037,-0.067
1670355911.91998,-9.248,-0.376,4.618,-0.6543,-0.3881,0.3633,-0.008,0.03,-0.046
1670355911.95998,-9.271,-0.335,4.64,-0.6508,-0.3831,0.3633,0.0,0.022,-0.05
1670355911.99998,-9.312,-0.32,4.688,-0.6502,-0.3836,0.3657,0.008,0.01,-0.066
1670355912.03998,-9.3,-0.369,4.642,-0.6515000000000001,-0.38270000000000004,0.3617,0.006,0.011,-0.063
1670355912.07998,-9.290000000000001,-0.437,4.6610000000000005,-0.6509,-0.38220000000000004,0.3637,-0.004,0.021,-0.055
1670355912.11998,-9.309000000000001,-0.294,4.688,-0.6502,-0.38280000000000003,0.3617,-0.005,0.018000000000000002,-0.045
1670355912.15998,-9.324,-0.311,4.646,-0.6552,-0.38380000000000003,0.36210000000000003,0.004,0.026000000000000002,-0.056
1670355912.19998,-9.255,-0.34400000000000003,4.6690000000000005,-0.651,-0.3841,0.3618,0.017,0.025,-0.051000000000000004
1670355912.23998,-9.254,-0.34800000000000003,4.667,-0.651,-0.3864,0.3654,0.004,0.014,-0.043000000000000003
1670355912.27998,-9.287,-0.335,4.667,-0.6512,-0.38330000000000003,0.3619,0.011,0.008,-0.044
1670355912.31998,-9.281,-0.338,4.67,-0.6503,-0.3856,0.3628,0.014,0.007,-0.055
1670355912.35998,-9.278,-0.34800000000000003,4.692,-0.6518,-0.3841,0.3637,0.011,0.01,-0.051000000000000004
1670355912.39998,-9.281,-0.356,4.676,-0.6487,-0.38420000000000004,0.3622,0.011,0.016,-0.051000000000000004
1670355912.43998,-9.264,-0.337,4.6850000000000005,-0.6494,-0.3845,0.3634,0.001,0.02,-0.05
1670355912.47998,-9.286,-0.331,4.692,-0.6504,-0.3845,0.3622,0.006,0.02,-0.048
1670355912.519979,-9.274000000000001,-0.34800000000000003,4.722,-0.6521,-0.3836,0.36300000000000004,0.003,0.015,-0.052000000000000005
1670355912.559979,-9.25,-0.34400000000000003,4.648,-0.6488,-0.3844,0.3637,0.0,0.02,-0.051000000000000004
1670355912.599979,-9.290000000000001,-0.313,4.665,-0.6509,-0.3831,0.3645,0.005,0.013000000000000001,-0.047
1670355912.639979,-9.258000000000001,-0.339,4.675,-0.6529,-0.3845,0.3652,0.01,0.013000000000000001,-0.051000000000000004
1670355912.679979,-9.253,-0.386,4.691,-0.6501,-0.3859,0.3623,0.01,0.013000000000000001,-0.054
1670355912.719979,-9.276,-0.34800000000000003,4.702,-0.6527000000000001,-0.3841,0.36460000000000004,0.0,0.017,-0.053
1670355912.759979,-9.326,-0.289,4.702,-0.6527000000000001,-0.38480000000000003,0.364,0.005,0.024,-0.038
1670355912.799979,-9.242,-0.40800000000000003,4.672,-0.6523,-0.38680000000000003,0.35900000000000004,0.007,0.034,-0.047
1670355912.839979,-9.224,-0.329,4.625,-0.6503,-0.3866,0.3579,0.0,0.024,-0.052000000000000005
1670355912.879979,-9.224,-0.307,4.6610000000000005,-0.6503,-0.38530000000000003,0.37070000000000003,-0.008,0.018000000000000002,-0.043000000000000003
1670355912.919979,-9.317,-0.307,4.704,-0.6507000000000001,-0.38530000000000003,0.37220000000000003,0.0,0.018000000000000002,-0.047
1670355912.959979,-9.265,-0.323,4.704,-0.6546000000000001,-0.3885,0.37220000000000003,0.013000000000000001,0.016,-0.049
1670355912.999979,-9.295,-0.34700000000000003,4.673,-0.6517000000000001,-0.3856,0.38280000000000003,0.0,0.018000000000000002,-0.058
1670355913.039979,-9.288,-0.41000000000000003,4.686,-0.6658000000000001,-0.39,0.3754,-0.001,0.011,-0.031
1670355913.079979,-9.286,-0.262,4.722,-0.6526000000000001,-0.38480000000000003,0.3513,0.005,0.03,-0.046
1670355913.119979,-9.303,-0.338,4.679,-0.6531,-0.38720000000000004,0.3632,0.014,0.024,-0.054
1670355913.159979,-9.264,-0.324,4.66,-0.651,-0.38570000000000004,0.3632,0.005,0.017,-0.04
1670355913.199979,-9.258000000000001,-0.323,4.66,-0.6645,-0.3889,0.3738,-0.001,0.009000000000000001,-0.05
1670355913.239979,-9.285,-0.314,4.689,-0.6504,-0.3841,0.3645,0.004,0.013000000000000001,-0.058
1670355913.279979,-9.258000000000001,-0.322,4.686,-0.6503,-0.3841,0.364,0.009000000000000001,0.016,-0.056
1670355913.319979,-9.284,-0.374,4.666,-0.6522,-0.38520000000000004,0.3623,0.003,0.013000000000000001,-0.05
1670355913.359979,-9.278,-0.34600000000000003,4.6850000000000005,-0.6506000000000001,-0.38270000000000004,0.3623,-0.001,0.021,-0.051000000000000004
1670355913.399979,-9.286,-0.337,4.662,-0.6507000000000001,-0.3845,0.3659,0.001,0.023,-0.048
1670355913.439979,-9.252,-0.34800000000000003,4.695,-0.6507000000000001,-0.384,0.3628,0.002,0.025,-0.051000000000000004
1670355913.479979,-9.266,-0.341,4.68,-0.6504,-0.38470000000000004,0.36260000000000003,0.003,0.016,-0.054
1670355913.519979,-9.308,-0.32,4.6610000000000005,-0.6508,-0.3844,0.3637,0.008,0.016,-0.047
1670355913.559978,-9.291,-0.342,4.699,-0.6536000000000001,-0.38280000000000003,0.36300000000000004,0.012,0.018000000000000002,-0.053
1670355913.599978,-9.27,-0.334,4.681,-0.6502,-0.3845,0.36150000000000004,0.009000000000000001,0.023,-0.052000000000000005
1670355913.639978,-9.24,-0.322,4.656,-0.6512,-0.38420000000000004,0.36210000000000003,0.005,0.011,-0.047
1670355913.679978,-9.316,-0.328,4.6850000000000005,-0.6504,-0.38480000000000003,0.3637,0.011,0.01,-0.036000000000000004
1670355913.719978,-9.316,-0.371,4.643,-0.6504,-0.38380000000000003,0.3618,0.008,0.028,-0.051000000000000004
1670355913.759978,-9.233,-0.28300000000000003,4.647,-0.6502,-0.3836,0.3634,0.0,0.02,-0.057
1670355913.799978,-9.259,-0.34400000000000003,4.609,-0.6513,-0.3844,0.3644,-0.001,0.011,-0.045
1670355913.839978,-9.296,-0.326,4.688,-0.6498,-0.38420000000000004,0.36300000000000004,0.006,0.011,-0.05
1670355913.879978,-9.299,-0.338,4.719,-0.649,-0.3824,0.3654,0.003,0.013000000000000001,-0.06
1670355913.919978,-9.23,-0.382,4.679,-0.6485000000000001,-0.3836,0.3629,-0.002,0.019,-0.058
1670355913.959978,-9.226,-0.289,4.665,-0.6514,-0.385,0.3612,-0.004,0.011,-0.044
1670355913.999978,-9.267,-0.38,4.624,-0.649,-0.3844,0.3623,0.013000000000000001,0.028,-0.051000000000000004
1670355914.039978,-9.278,-0.305,4.666,-0.6489,-0.38580000000000003,0.3617,0.02,0.028,-0.057
1670355914.079978,-9.251,-0.34400000000000003,4.624,-0.6517000000000001,-0.38480000000000003,0.3653,0.013000000000000001,0.016,-0.042
1670355914.119978,-9.28,-0.317,4.628,-0.6505000000000001,-0.38620000000000004,0.36100000000000004,0.007,0.012,-0.047
1670355914.159978,-9.308,-0.28700000000000003,4.676,-0.653,-0.38480000000000003,0.36310000000000003,0.017,0.01,-0.052000000000000005
1670355914.199978,-9.289,-0.342,4.664,-0.654,-0.3861,0.364,0.009000000000000001,0.007,-0.059000000000000004
1670355914.239978,-9.257,-0.331,4.6690000000000005,-0.6532,-0.38430000000000003,0.36210000000000003,-0.002,0.013000000000000001,-0.054
1670355914.279978,-9.284,-0.332,4.625,-0.6519,-0.3836,0.3644,-0.004,0.012,-0.048
1670355914.319978,-9.279,-0.327,4.654,-0.6523,-0.3844,0.3639,0.001,0.015,-0.054
1670355914.359978,-9.27,-0.356,4.6690000000000005,-0.6526000000000001,-0.3834,0.36460000000000004,0.003,0.016,-0.057
1670355914.399978,-9.269,-0.339,4.692,-0.6491,-0.388,0.3638,0.0,0.013000000000000001,-0.049
1670355914.439978,-9.277000000000001,-0.33,4.692,-0.6493,-0.3854,0.3624,0.001,0.016,-0.047
1670355914.4799778,-9.314,-0.32,4.72,-0.6512,-0.3864,0.3645,0.009000000000000001,0.021,-0.046
1670355914.519978,-9.262,-0.342,4.71,-0.6484,-0.385,0.3643,0.017,0.024,-0.053
1670355914.559978,-9.306000000000001,-0.371,4.648,-0.6513,-0.3864,0.3635,0.011,0.022,-0.06
1670355914.599977,-9.278,-0.329,4.658,-0.6487,-0.38420000000000004,0.36150000000000004,-0.004,0.014,-0.05
1670355914.639977,-9.313,-0.21,4.662,-0.6476000000000001,-0.38680000000000003,0.36300000000000004,0.008,0.007,-0.036000000000000004
1670355914.679977,-9.257,-0.363,4.612,-0.6511,-0.3846,0.3639,0.011,0.018000000000000002,-0.054
1670355914.719977,-9.27,-0.323,4.644,-0.6493,-0.3854,0.3632,0.002,0.019,-0.063
1670355914.759977,-9.24,-0.317,4.663,-0.649,-0.3851,0.3632,-0.009000000000000001,0.01,-0.045
1670355914.799977,-9.254,-0.293,4.686,-0.6519,-0.38520000000000004,0.36460000000000004,-0.007,0.004,-0.051000000000000004
1670355914.839977,-9.290000000000001,-0.328,4.703,-0.6574,-0.3866,0.366,0.007,0.006,-0.06
1670355914.879977,-9.248,-0.424,4.697,-0.6503,-0.3829,0.3642,-0.007,0.011,-0.056
1670355914.919977,-9.261000000000001,-0.248,4.716,-0.6513,-0.385,0.3614,-0.005,0.006,-0.043000000000000003
1670355914.959977,-9.273,-0.375,4.689,-0.651,-0.38220000000000004,0.3629,-0.005,0.024,-0.049
1670355914.999977,-9.252,-0.34500000000000003,4.695,-0.6496000000000001,-0.385,0.3654,0.007,0.025,-0.056
1670355915.039977,-9.223,-0.336,4.708,-0.6521,-0.38420000000000004,0.3579,0.006,0.021,-0.05
1670355915.079977,-9.257,-0.324,4.718,-0.6512,-0.3855,0.3551,0.002,0.019,-0.045
1670355915.119977,-9.257,-0.343,4.707,-0.6512,-0.3855,0.37310000000000004,0.009000000000000001,0.018000000000000002,-0.055
1670355915.159977,-9.285,-0.343,4.707,-0.6516000000000001,-0.3849,0.37310000000000004,0.013000000000000001,0.019,-0.058
1670355915.199977,-9.279,-0.364,4.707,-0.6669,-0.3904,0.3637,0.004,0.017,-0.045
1670355915.239977,-9.279,-0.353,4.704,-0.6555000000000001,-0.3855,0.36610000000000004,0.004,0.022,-0.046
1670355915.2799768,-9.253,-0.325,4.6770000000000005,-0.6513,-0.3859,0.3554,0.008,0.023,-0.049
1670355915.319977,-9.261000000000001,-0.325,4.694,-0.6531,-0.38480000000000003,0.36760000000000004,0.007,0.022,-0.052000000000000005
1670355915.359977,-9.258000000000001,-0.329,4.658,-0.6508,-0.3845,0.3663,0.001,0.021,-0.048
1670355915.399977,-9.239,-0.337,4.664,-0.6494,-0.38620000000000004,0.3633,-0.001,0.024,-0.052000000000000005
1670355915.439977,-9.264,-0.35000000000000003,4.695,-0.6512,-0.3844,0.3658,0.002,0.022,-0.044
1670355915.479977,-9.290000000000001,-0.321,4.682,-0.6492,-0.3859,0.3623,0.009000000000000001,0.023,-0.049
1670355915.5199769,-9.274000000000001,-0.33,4.682,-0.6493,-0.3834,0.3607,0.005,0.022,-0.049
1670355915.559977,-9.273,-0.318,4.7,-0.6501,-0.38470000000000004,0.36310000000000003,0.009000000000000001,0.018000000000000002,-0.056
1670355915.599977,-9.282,-0.335,4.682,-0.6514,-0.3836,0.3632,-0.002,0.022,-0.054
1670355915.639977,-9.214,-0.386,4.68,-0.6472,-0.3836,0.3623,-0.008,0.013000000000000001,-0.055
1670355915.679977,-9.317,-0.336,4.702,-0.6488,-0.3834,0.36310000000000003,-0.004,0.009000000000000001,-0.039
1670355915.719976,-9.351,-0.28400000000000003,4.695,-0.6524,-0.38530000000000003,0.36250000000000004,0.01,0.023,-0.05
1670355915.759976,-9.265,-0.339,4.655,-0.6491,-0.38370000000000004,0.36360000000000003,0.002,0.025,-0.056
1670355915.799976,-9.204,-0.354,4.624,-0.6482,-0.3831,0.3657,-0.004,0.011,-0.035
1670355915.839976,-9.271,-0.34700000000000003,4.686,-0.6524,-0.3808,0.3628,0.005,0.008,-0.046
1670355915.879976,-9.309000000000001,-0.341,4.756,-0.6516000000000001,-0.38380000000000003,0.3662,0.014,0.019,-0.057
1670355915.919976,-9.305,-0.37,4.719,-0.6522,-0.3866,0.3653,0.006,0.03,-0.05
1670355915.959976,-9.269,-0.395,4.614,-0.6524,-0.387,0.3637,-0.005,0.024,-0.033
1670355915.999976,-9.318,-0.26,4.7,-0.6485000000000001,-0.3845,0.3634,0.006,0.036000000000000004,-0.04
1670355916.039976,-9.317,-0.254,4.689,-0.6483,-0.3824,0.3628,0.018000000000000002,0.037,-0.055
1670355916.0799758,-9.276,-0.329,4.639,-0.6512,-0.38580000000000003,0.3629,0.017,0.014,-0.049
1670355916.119976,-9.258000000000001,-0.323,4.601,-0.6494,-0.3844,0.3594,0.008,0.006,-0.055
1670355916.159976,-9.281,-0.269,4.65,-0.6493,-0.38630000000000003,0.3649,0.005,0.0,-0.056
1670355916.199976,-9.288,-0.335,4.671,-0.6512,-0.38770000000000004,0.3648,0.003,0.0,-0.064
1670355916.239976,-9.253,-0.356,4.707,-0.6585000000000001,-0.3839,0.3629,0.0,-0.002,-0.063
1670355916.279976,-9.273,-0.36,4.72,-0.6529,-0.38430000000000003,0.3648,-0.008,0.005,-0.055
1670355916.3199759,-9.258000000000001,-0.35000000000000003,4.72,-0.6509,-0.3839,0.36460000000000004,-0.004,0.013000000000000001,-0.051000000000000004
1670355916.359976,-9.26,-0.339,4.724,-0.6489,-0.38480000000000003,0.3659,-0.001,0.026000000000000002,-0.06
1670355916.399976,-9.272,-0.353,4.708,-0.6501,-0.386,0.3642,0.006,0.024,-0.051000000000000004
1670355916.439976,-9.261000000000001,-0.329,4.695,-0.6552,-0.38520000000000004,0.3653,0.012,0.025,-0.044
1670355916.479976,-9.290000000000001,-0.322,4.682,-0.651,-0.3866,0.3639,0.009000000000000001,0.029,-0.048
1670355916.519976,-9.253,-0.305,4.683,-0.6515000000000001,-0.38430000000000003,0.364,0.009000000000000001,0.026000000000000002,-0.051000000000000004
1670355916.5599759,-9.243,-0.341,4.686,-0.6504,-0.385,0.3638,0.002,0.02,-0.054
1670355916.599976,-9.236,-0.308,4.695,-0.6487,-0.38530000000000003,0.3639,0.001,0.017,-0.055
1670355916.639976,-9.315,-0.307,4.665,-0.6496000000000001,-0.3836,0.3637,0.006,0.02,-0.041
1670355916.679976,-9.275,-0.371,4.683,-0.6532,-0.3861,0.3649,0.0,0.029,-0.051000000000000004
1670355916.719976,-9.234,-0.31,4.671,-0.6501,-0.3845,0.36410000000000003,0.0,0.017,-0.053
1670355916.759975,-9.251,-0.301,4.6690000000000005,-0.6487,-0.383,0.3634,-0.005,0.015,-0.049
1670355916.799975,-9.285,-0.35000000000000003,4.708,-0.6489,-0.38420000000000004,0.3659,0.012,0.007,-0.06
1670355916.839975,-9.288,-0.35000000000000003,4.731,-0.6504,-0.38530000000000003,0.36610000000000004,0.007,0.016,-0.065
1670355916.879975,-9.248,-0.419,4.716,-0.6501,-0.38530000000000003,0.3623,-0.005,0.012,-0.058
1670355916.919975,-9.285,-0.278,4.744,-0.6493,-0.3856,0.3628,0.0,0.01,-0.036000000000000004
1670355916.959975,-9.314,-0.34500000000000003,4.707,-0.6522,-0.38480000000000003,0.36100000000000004,0.017,0.032,-0.051000000000000004
1670355916.999975,-9.244,-0.332,4.673,-0.6519,-0.3856,0.3609,0.019,0.027,-0.061
1670355917.039975,-9.236,-0.341,4.694,-0.6509,-0.38530000000000003,0.3649,0.005,0.018000000000000002,-0.038
1670355917.079975,-9.285,-0.313,4.666,-0.6542,-0.3865,0.3623,0.005,0.019,-0.05
1670355917.1199749,-9.281,-0.302,4.654,-0.6498,-0.3835,0.36210000000000003,0.02,0.013000000000000001,-0.051000000000000004
1670355917.159975,-9.264,-0.355,4.642,-0.6515000000000001,-0.3859,0.36310000000000003,0.013000000000000001,0.012,-0.058
1670355917.199975,-9.289,-0.34800000000000003,4.688,-0.6503,-0.38580000000000003,0.3647,0.005,0.012,-0.048
1670355917.239975,-9.282,-0.325,4.68,-0.6529,-0.38530000000000003,0.37410000000000004,0.0,0.018000000000000002,-0.047
1670355917.279975,-9.269,-0.335,4.673,-0.6514,-0.38670000000000004,0.3458,0.006,0.02,-0.054
1670355917.319975,-9.245000000000001,-0.329,4.745,-0.6551,-0.38630000000000003,0.3844,0.0,0.016,-0.056
1670355917.3599749,-9.245000000000001,-0.343,4.712,-0.6551,-0.38680000000000003,0.35050000000000003,0.005,0.018000000000000002,-0.054
1670355917.399975,-9.266,-0.343,4.699,-0.6537000000000001,-0.38680000000000003,0.3764,0.004,0.019,-0.05
1670355917.439975,-9.28,-0.32,4.699,-0.6513,-0.3854,0.3764,0.015,0.018000000000000002,-0.057
1670355917.479975,-9.257,-0.323,4.752,-0.6531,-0.3841,0.3774,0.016,0.023,-0.056
1670355917.519975,-9.241,-0.391,4.7250000000000005,-0.6499,-0.3851,0.3664,0.004,0.012,-0.055
1670355917.559975,-9.309000000000001,-0.368,4.694,-0.6507000000000001,-0.38520000000000004,0.3608,0.003,0.014,-0.033
1670355917.5999749,-9.342,-0.268,4.744,-0.6493,-0.38320000000000004,0.36150000000000004,0.013000000000000001,0.021,-0.043000000000000003
1670355917.639975,-9.223,-0.308,4.705,-0.6505000000000001,-0.38630000000000003,0.3618,0.016,0.014,-0.052000000000000005
1670355917.679975,-9.232,-0.341,4.673,-0.6483,-0.38530000000000003,0.3658,0.01,0.009000000000000001,-0.045
1670355917.719975,-9.271,-0.332,4.698,-0.6502,-0.38380000000000003,0.36560000000000004,0.005,0.009000000000000001,-0.042
1670355917.759975,-9.269,-0.316,4.746,-0.6509,-0.3856,0.3649,0.013000000000000001,0.012,-0.052000000000000005
1670355917.799974,-9.285,-0.329,4.739,-0.6509,-0.38420000000000004,0.3657,0.008,0.017,-0.053
1670355917.839974,-9.288,-0.371,4.718,-0.6488,-0.38430000000000003,0.3614,0.005,0.007,-0.042
1670355917.879974,-9.276,-0.244,4.734,-0.6502,-0.3849,0.3639,0.004,0.023,-0.049
1670355917.9199739,-9.305,-0.289,4.7330000000000005,-0.6518,-0.385,0.36560000000000004,0.014,0.025,-0.052000000000000005
1670355917.959974,-9.258000000000001,-0.311,4.72,-0.651,-0.3866,0.3629,0.012,0.015,-0.046
1670355917.999974,-9.256,-0.298,4.696,-0.6669,-0.3895,0.36100000000000004,0.012,0.008,-0.048
1670355918.039974,-9.272,-0.253,4.74,-0.6503,-0.3845,0.3624,0.021,0.013000000000000001,-0.056
1670355918.079974,-9.249,-0.31,4.719,-0.6523,-0.3866,0.36810000000000004,0.016,0.017,-0.056
1670355918.119974,-9.272,-0.338,4.712,-0.6505000000000001,-0.3869,0.3642,0.003,0.02,-0.046
1670355918.1599739,-9.261000000000001,-0.303,4.712,-0.6511,-0.38580000000000003,0.36360000000000003,-0.003,0.023,-0.042
1670355918.199974,-9.258000000000001,-0.295,4.688,-0.6509,-0.38670000000000004,0.36560000000000004,0.0,0.025,-0.046
1670355918.239974,-9.25,-0.308,4.689,-0.6503,-0.38720000000000004,0.36560000000000004,0.004,0.021,-0.052000000000000005
1670355918.279974,-9.233,-0.305,4.706,-0.6494,-0.3854,0.36460000000000004,0.0,0.015,-0.051000000000000004
1670355918.319974,-9.264,-0.293,4.712,-0.6517000000000001,-0.38470000000000004,0.364,-0.002,0.013000000000000001,-0.051000000000000004
1670355918.359974,-9.272,-0.289,4.707,-0.6506000000000001,-0.3874,0.36460000000000004,0.007,0.015,-0.049
1670355918.3999739,-9.27,-0.305,4.728,-0.6514,-0.3869,0.3612,0.019,0.009000000000000001,-0.049
1670355918.439974,-9.258000000000001,-0.313,4.696,-0.6516000000000001,-0.38480000000000003,0.3617,0.011,0.014,-0.053
1670355918.479974,-9.248,-0.34800000000000003,4.728,-0.6506000000000001,-0.3874,0.3643,0.004,0.006,-0.04
1670355918.519974,-9.277000000000001,-0.32,4.748,-0.6504,-0.38630000000000003,0.3643,0.0,0.014,-0.034
1670355918.559974,-9.323,-0.258,4.755,-0.6515000000000001,-0.3856,0.36310000000000003,0.01,0.019,-0.047
1670355918.599974,-9.258000000000001,-0.272,4.7170000000000005,-0.6521,-0.38480000000000003,0.36460000000000004,0.011,0.016,-0.058
1670355918.6399739,-9.24,-0.34400000000000003,4.687,-0.654,-0.3875,0.3633,-0.007,0.022,-0.051000000000000004
1670355918.679974,-9.226,-0.289,4.705,-0.6512,-0.38520000000000004,0.36610000000000004,-0.016,0.02,-0.041
1670355918.719974,-9.253,-0.268,4.78,-0.6505000000000001,-0.38520000000000004,0.3635,0.001,0.009000000000000001,-0.053
1670355918.759974,-9.279,-0.305,4.737,-0.6519,-0.38630000000000003,0.36610000000000004,0.007,0.008,-0.061
1670355918.799974,-9.238,-0.368,4.6610000000000005,-0.6522,-0.38530000000000003,0.3653,0.0,0.009000000000000001,-0.06
1670355918.839973,-9.297,-0.253,4.727,-0.6529,-0.38730000000000003,0.367,0.004,0.019,-0.053
1670355918.879973,-9.267,-0.293,4.75,-0.6531,-0.387,0.36410000000000003,0.01,0.012,-0.049
1670355918.919973,-9.271,-0.321,4.724,-0.6497,-0.3861,0.3652,0.011,0.017,-0.056
1670355918.9599729,-9.268,-0.319,4.715,-0.6526000000000001,-0.3864,0.366,0.002,0.018000000000000002,-0.046
1670355918.999973,-9.232,-0.294,4.7330000000000005,-0.6504,-0.3856,0.3635,0.009000000000000001,0.015,-0.052000000000000005
1670355919.039973,-9.251,-0.32,4.7090000000000005,-0.6511,-0.3861,0.3645,0.008,0.012,-0.057
1670355919.079973,-9.226,-0.323,4.745,-0.6532,-0.38670000000000004,0.36460000000000004,0.009000000000000001,0.015,-0.053
1670355919.119973,-9.257,-0.308,4.712,-0.6536000000000001,-0.3866,0.3655,0.003,0.024,-0.049
1670355919.159973,-9.239,-0.28600000000000003,4.699,-0.6501,-0.3864,0.3663,0.004,0.03,-0.045
1670355919.1999729,-9.264,-0.296,4.7620000000000005,-0.6524,-0.38520000000000004,0.36710000000000004,0.004,0.029,-0.049
1670355919.239973,-9.238,-0.302,4.727,-0.6544,-0.38670000000000004,0.3665,0.008,0.025,-0.059000000000000004
1670355919.279973,-9.263,-0.323,4.691,-0.6518,-0.38530000000000003,0.3665,0.006,0.02,-0.052000000000000005
1670355919.319973,-9.241,-0.296,4.713,-0.6541,-0.3854,0.3678,-0.001,0.017,-0.047
1670355919.359973,-9.251,-0.292,4.697,-0.6524,-0.38730000000000003,0.3653,0.0,0.014,-0.052000000000000005
1670355919.399973,-9.247,-0.289,4.719,-0.6521,-0.38880000000000003,0.3654,0.007,0.017,-0.047
1670355919.4399729,-9.264,-0.316,4.721,-0.6566000000000001,-0.3854,0.3643,0.008,0.011,-0.063
1670355919.479973,-9.209,-0.342,4.718,-0.6517000000000001,-0.3854,0.3653,-0.005,0.014,-0.052000000000000005
1670355919.519973,-9.264,-0.299,4.738,-0.6527000000000001,-0.3866,0.3629,-0.007,0.019,-0.052000000000000005
1670355919.559973,-9.32,-0.312,4.768,-0.6522,-0.3849,0.38320000000000004,0.008,0.021,-0.048
1670355919.599973,-9.241,-0.29,4.724,-0.6527000000000001,-0.3844,0.37720000000000004,0.014,0.024,-0.06
1670355919.639973,-9.241,-0.29,4.6850000000000005,-0.6527000000000001,-0.3844,0.3688,0.007,0.019,-0.055
1670355919.679973,-9.223,-0.337,4.6850000000000005,-0.65,-0.38780000000000003,0.3688,-0.001,0.012,-0.042
1670355919.719973,-9.244,-0.312,4.78,-0.6499,-0.3864,0.3841,0.003,0.014,-0.048
1670355919.759973,-9.269,-0.28700000000000003,4.7700000000000005,-0.6533,-0.3841,0.3723,0.008,0.027,-0.054
1670355919.799973,-9.25,-0.28800000000000003,4.774,-0.654,-0.3876,0.3739,0.006,0.018000000000000002,-0.064
1670355919.839973,-9.261000000000001,-0.374,4.702,-0.6548,-0.3829,0.3679,0.0,0.004,-0.043000000000000003
1670355919.879972,-9.3,-0.28600000000000003,4.739,-0.6532,-0.38530000000000003,0.3654,0.003,0.019,-0.04
1670355919.919972,-9.287,-0.28400000000000003,4.722,-0.6512,-0.38480000000000003,0.36510000000000004,0.008,0.018000000000000002,-0.041
1670355919.959972,-9.219,-0.3,4.706,-0.6532,-0.38520000000000004,0.364,0.018000000000000002,0.007,-0.048
1670355919.9999719,-9.223,-0.3,4.736,-0.6571,-0.3899,0.37220000000000003,0.014,0.002,-0.055
1670355920.039972,-9.255,-0.293,4.731,-0.6534,-0.3874,0.366,0.009000000000000001,0.009000000000000001,-0.047
1670355920.079972,-9.247,-0.319,4.764,-0.6519,-0.3854,0.3662,0.001,0.01,-0.053
1670355920.119972,-9.233,-0.307,4.772,-0.6532,-0.3866,0.36410000000000003,0.0,0.02,-0.054
1670355920.159972,-9.224,-0.322,4.774,-0.6547000000000001,-0.38580000000000003,0.36910000000000004,-0.002,0.026000000000000002,-0.047
1670355920.199972,-9.232,-0.3,4.768,-0.6531,-0.3859,0.3654,-0.001,0.017,-0.049
1670355920.2399719,-9.222,-0.305,4.734,-0.6667000000000001,-0.39130000000000004,0.37370000000000003,0.003,0.02,-0.053
1670355920.279972,-9.258000000000001,-0.313,4.736,-0.6522,-0.3841,0.3638,0.003,0.025,-0.06
1670355920.319972,-9.26,-0.308,4.687,-0.6529,-0.38670000000000004,0.3673,0.001,0.018000000000000002,-0.053
1670355920.359972,-9.229000000000001,-0.31,4.772,-0.6534,-0.3871,0.3684,0.001,0.023,-0.047
1670355920.399972,-9.238,-0.295,4.7330000000000005,-0.6528,-0.3844,0.3642,0.007,0.03,-0.053
1670355920.439972,-9.236,-0.328,4.746,-0.6521,-0.38530000000000003,0.3669,0.003,0.022,-0.052000000000000005
1670355920.479972,-9.213000000000001,-0.329,4.747,-0.6532,-0.3856,0.3667,0.0,0.011,-0.053
1670355920.519972,-9.299,-0.311,4.719,-0.6502,-0.38420000000000004,0.36560000000000004,0.003,0.016,-0.044
1670355920.559972,-9.302,-0.297,4.743,-0.6519,-0.3874,0.3652,0.005,0.033,-0.049
1670355920.599972,-9.205,-0.266,4.719,-0.6507000000000001,-0.3865,0.364,0.006,0.023,-0.051000000000000004
1670355920.639972,-9.226,-0.317,4.746,-0.6498,-0.3856,0.3668,0.003,0.016,-0.041
1670355920.679972,-9.265,-0.303,4.746,-0.6545000000000001,-0.3876,0.364,0.01,0.016,-0.054
1670355920.719972,-9.265,-0.292,4.782,-0.6511,-0.3881,0.3667,0.013000000000000001,0.016,-0.058
1670355920.759972,-9.215,-0.34400000000000003,4.7700000000000005,-0.6518,-0.38570000000000004,0.3649,0.003,0.015,-0.058
1670355920.799972,-9.213000000000001,-0.27,4.7940000000000005,-0.6512,-0.38470000000000004,0.3658,-0.005,0.018000000000000002,-0.037
1670355920.839972,-9.218,-0.332,4.73,-0.6524,-0.3869,0.3659,0.01,0.018000000000000002,-0.043000000000000003
1670355920.879972,-9.256,-0.267,4.694,-0.6531,-0.3864,0.3672,0.012,0.032,-0.057
1670355920.919971,-9.227,-0.322,4.728,-0.652,-0.3861,0.3668,0.002,0.022,-0.051000000000000004
1670355920.959971,-9.258000000000001,-0.304,4.723,-0.6509,-0.3864,0.3663,-0.001,0.018000000000000002,-0.044
1670355920.999971,-9.28,-0.271,4.73,-0.6513,-0.38720000000000004,0.36560000000000004,0.007,0.013000000000000001,-0.054
1670355921.0399709,-9.258000000000001,-0.318,4.749,-0.6523,-0.3844,0.367,0.01,0.017,-0.059000000000000004
1670355921.079971,-9.257,-0.325,4.6850000000000005,-0.6513,-0.38470000000000004,0.3652,-0.004,0.026000000000000002,-0.053
1670355921.119971,-9.275,-0.325,4.714,-0.6515000000000001,-0.387,0.3665,0.0,0.025,-0.051000000000000004
1670355921.159971,-9.256,-0.29,4.72,-0.6513,-0.38620000000000004,0.3632,0.002,0.02,-0.049
1670355921.199971,-9.255,-0.319,4.724,-0.6505000000000001,-0.3869,0.3673,0.009000000000000001,0.024,-0.057
1670355921.239971,-9.265,-0.307,4.7250000000000005,-0.6512,-0.38430000000000003,0.3673,0.005,0.017,-0.049
1670355921.279971,-9.245000000000001,-0.308,4.688,-0.6519,-0.38680000000000003,0.3634,0.005,0.017,-0.043000000000000003
1670355921.319971,-9.221,-0.275,4.747,-0.6543,-0.3866,0.3667,0.008,0.021,-0.051000000000000004
1670355921.359971,-9.248,-0.28600000000000003,4.7540000000000004,-0.6551,-0.3861,0.3667,0.018000000000000002,0.015,-0.057
1670355921.399971,-9.209,-0.35100000000000003,4.724,-0.6511,-0.385,0.3654,0.011,0.026000000000000002,-0.059000000000000004
1670355921.439971,-9.3,-0.342,4.743,-0.6489,-0.38680000000000003,0.3619,-0.002,0.021,-0.046
1670355921.479971,-9.232,-0.263,4.844,-0.6518,-0.3864,0.3662,0.013000000000000001,0.025,-0.046
1670355921.519971,-9.264,-0.297,4.704,-0.6513,-0.3866,0.3673,0.009000000000000001,0.032,-0.065
1670355921.559971,-9.167,-0.372,4.688,-0.6517000000000001,-0.38430000000000003,0.3657,-0.004,0.044,-0.05
1670355921.599971,-9.285,-0.292,4.694,-0.6504,-0.38830000000000003,0.3635,-0.014,0.037,-0.041
1670355921.639971,-9.299,-0.261,4.679,-0.6518,-0.38530000000000003,0.3652,-0.003,0.027,-0.065
1670355921.679971,-9.314,-0.274,4.643,-0.6511,-0.38680000000000003,0.3655,0.003,0.017,-0.078
1670355921.719971,-9.295,-0.438,4.6290000000000004,-0.6494,-0.38720000000000004,0.36560000000000004,-0.001,0.012,-0.079
1670355921.759971,-9.365,-0.20800000000000002,4.714,-0.649,-0.38530000000000003,0.3634,-0.007,0.008,-0.047
1670355921.799971,-9.227,-0.359,4.758,-0.6495000000000001,-0.38770000000000004,0.37070000000000003,0.007,0.031,-0.052000000000000005
1670355921.839971,-9.348,-0.313,4.651,-0.6497,-0.3849,0.38680000000000003,0.032,0.049,-0.06
1670355921.879971,-9.348,-0.313,4.715,-0.6497,-0.3849,0.36150000000000004,-0.005,0.074,-0.038
1670355921.919971,-9.236,-0.395,4.715,-0.6538,-0.3874,0.36150000000000004,0.046,0.026000000000000002,-0.043000000000000003
1670355921.95997,-9.388,-0.139,4.617,-0.6525000000000001,-0.385,0.3567,0.138,0.078,-0.126
1670355921.99997,-9.103,-0.31,4.68,-0.6508,-0.388,0.38480000000000003,0.097,0.001,-0.111
1670355922.03997,-9.466000000000001,-0.584,4.495,-0.6535000000000001,-0.3886,0.38870000000000005,0.008,-0.034,-0.02
1670355922.07997,-9.423,-0.275,4.569,-0.6563,-0.3916,0.37260000000000004,-0.03,-0.002,-0.005
1670355922.11997,-9.278,-0.232,4.686,-0.6488,-0.3875,0.3657,-0.033,0.021,-0.037
1670355922.15997,-9.211,-0.248,4.703,-0.6632,-0.39030000000000004,0.3703,-0.032,0.005,-0.047
1670355922.19997,-9.242,-0.303,4.704,-0.6519,-0.3869,0.36460000000000004,-0.037,-0.025,-0.062
1670355922.23997,-9.362,-0.274,4.706,-0.6529,-0.38630000000000003,0.3685,-0.024,-0.017,-0.078
1670355922.27997,-9.315,-0.316,4.679,-0.6527000000000001,-0.38580000000000003,0.36460000000000004,-0.033,0.013000000000000001,-0.053
1670355922.31997,-9.212,-0.324,4.724,-0.6587000000000001,-0.3909,0.37260000000000004,-0.029,0.016,-0.042
1670355922.35997,-9.34,-0.296,4.691,-0.6538,-0.3866,0.3643,0.001,0.025,-0.012
1670355922.39997,-9.36,-0.23800000000000002,4.732,-0.6491,-0.38420000000000004,0.3679,0.016,0.036000000000000004,-0.06
1670355922.43997,-9.242,-0.34700000000000003,4.616,-0.6512,-0.3859,0.36410000000000003,0.011,0.023,-0.063
1670355922.47997,-9.183,-0.392,4.635,-0.6508,-0.387,0.3687,-0.021,0.004,-0.052000000000000005
1670355922.51997,-9.244,-0.341,4.699,-0.6531,-0.3855,0.3687,-0.023,-0.003,-0.045
1670355922.55997,-9.290000000000001,-0.319,4.674,-0.6511,-0.38520000000000004,0.3633,0.001,-0.002,-0.059000000000000004
1670355922.59997,-9.292,-0.317,4.703,-0.6514,-0.3856,0.3652,0.002,0.014,-0.07100000000000001
1670355922.63997,-9.258000000000001,-0.34900000000000003,4.652,-0.6496000000000001,-0.38680000000000003,0.3639,0.0,0.004,-0.044
1670355922.67997,-9.25,-0.331,4.721,-0.6513,-0.3875,0.36510000000000004,0.006,0.006,-0.033
1670355922.71997,-9.290000000000001,-0.305,4.761,-0.6509,-0.3846,0.365,0.014,0.006,-0.057
1670355922.75997,-9.23,-0.314,4.698,-0.6512,-0.38520000000000004,0.3659,0.026000000000000002,0.0,-0.054
1670355922.79997,-9.224,-0.338,4.737,-0.6516000000000001,-0.38580000000000003,0.3647,0.01,0.004,-0.048
1670355922.83997,-9.257,-0.311,4.676,-0.6514,-0.3845,0.3633,0.007,0.005,-0.052000000000000005
1670355922.87997,-9.282,-0.302,4.738,-0.6519,-0.3861,0.36610000000000004,0.005,0.017,-0.062
1670355922.91997,-9.248,-0.359,4.703,-0.6529,-0.3855,0.36760000000000004,0.0,0.019,-0.051000000000000004
1670355922.95997,-9.232,-0.334,4.742,-0.6534,-0.38720000000000004,0.3662,-0.006,0.021,-0.051000000000000004
1670355922.999969,-9.247,-0.34500000000000003,4.713,-0.6502,-0.3846,0.365,-0.006,0.011,-0.05
1670355923.039969,-9.232,-0.34800000000000003,4.78,-0.651,-0.38430000000000003,0.36250000000000004,0.0,0.017,-0.054
1670355923.079969,-9.206,-0.326,4.7330000000000005,-0.651,-0.38530000000000003,0.3667,-0.005,0.014,-0.055
1670355923.119969,-9.223,-0.336,4.7620000000000005,-0.6522,-0.3861,0.3664,-0.002,0.006,-0.051000000000000004
1670355923.159969,-9.272,-0.32,4.765,-0.6542,-0.38580000000000003,0.3683,0.006,0.013000000000000001,-0.036000000000000004
1670355923.199969,-9.285,-0.34500000000000003,4.7250000000000005,-0.6508,-0.3855,0.3639,0.01,0.026000000000000002,-0.05
1670355923.239969,-9.191,-0.293,4.715,-0.6518,-0.38580000000000003,0.3668,0.003,0.02,-0.047
1670355923.279969,-9.204,-0.354,4.726,-0.6513,-0.386,0.36710000000000004,0.007,0.014,-0.044
1670355923.319969,-9.239,-0.328,4.804,-0.6543,-0.3866,0.3678,0.005,0.012,-0.058
1670355923.359969,-9.282,-0.323,4.773,-0.6559,-0.3865,0.36610000000000004,0.006,0.014,-0.058
1670355923.399969,-9.205,-0.42,4.772,-0.6515000000000001,-0.38330000000000003,0.3677,-0.006,0.011,-0.061
1670355923.439969,-9.19,-0.271,4.777,-0.6524,-0.3859,0.36510000000000004,-0.006,0.012,-0.037
1670355923.479969,-9.275,-0.362,4.729,-0.6521,-0.3856,0.3637,0.015,0.031,-0.049
1670355923.519969,-9.214,-0.304,4.71,-0.653,-0.387,0.3639,0.005,0.039,-0.051000000000000004
1670355923.559969,-9.188,-0.34700000000000003,4.708,-0.6503,-0.383,0.36660000000000004,0.008,0.019,-0.035
1670355923.599969,-9.241,-0.308,4.706,-0.6522,-0.3841,0.3667,0.016,0.006,-0.044
1670355923.639969,-9.287,-0.28500000000000003,4.752,-0.6526000000000001,-0.3889,0.3647,0.044,0.01,-0.068
1670355923.679969,-9.221,-0.368,4.724,-0.6527000000000001,-0.38630000000000003,0.3659,0.031,0.01,-0.06
1670355923.719969,-9.241,-0.339,4.731,-0.6518,-0.3856,0.3664,0.0,0.015,-0.044
1670355923.759969,-9.244,-0.303,4.739,-0.6535000000000001,-0.38520000000000004,0.3679,0.007,0.012,-0.042
1670355923.799969,-9.234,-0.292,4.767,-0.6549,-0.38730000000000003,0.3652,0.006,0.013000000000000001,-0.049
1670355923.839969,-9.214,-0.309,4.73,-0.6515000000000001,-0.38470000000000004,0.3664,0.01,0.012,-0.056
1670355923.879969,-9.215,-0.32,4.779,-0.6504,-0.38580000000000003,0.36760000000000004,0.006,0.01,-0.051000000000000004
1670355923.9199688,-9.258000000000001,-0.31,4.758,-0.6512,-0.3836,0.364,0.006,0.008,-0.057
1670355923.959969,-9.185,-0.302,4.8020000000000005,-0.6531,-0.387,0.3695,0.0,0.012,-0.043000000000000003
1670355923.999969,-9.218,-0.273,4.764,-0.6526000000000001,-0.3849,0.3667,0.001,0.026000000000000002,-0.039
1670355924.039968,-9.259,-0.359,4.771,-0.6519,-0.3901,0.35500000000000004,0.011,0.029,-0.053
1670355924.079968,-9.21,-0.28500000000000003,4.7540000000000004,-0.6538,-0.38480000000000003,0.365,0.011,0.024,-0.063
1670355924.119968,-9.21,-0.354,4.772,-0.6538,-0.3924,0.3992,-0.002,0.02,-0.052000000000000005
1670355924.159968,-9.233,-0.354,4.772,-0.6631,-0.3924,0.3992,-0.014,0.014,-0.049
1670355924.199968,-9.238,-0.319,4.759,-0.6556000000000001,-0.387,0.35750000000000004,-0.008,0.01,-0.05
1670355924.239968,-9.251,-0.293,4.791,-0.6685,-0.39030000000000004,0.35100000000000003,-0.007,0.008,-0.056
1670355924.279968,-9.215,-0.394,4.773,-0.6542,-0.3861,0.39230000000000004,-0.009000000000000001,0.011,-0.042
1670355924.319968,-9.223,-0.275,4.7940000000000005,-0.6574,-0.38770000000000004,0.37110000000000004,-0.004,0.019,-0.046
1670355924.359968,-9.232,-0.361,4.767,-0.6558,-0.3881,0.3668,0.005,0.02,-0.055
1670355924.399968,-9.231,-0.297,4.745,-0.6583,-0.3871,0.37160000000000004,0.012,0.015,-0.051000000000000004
1670355924.439968,-9.201,-0.335,4.765,-0.6512,-0.3854,0.3672,0.008,0.011,-0.044
1670355924.479968,-9.212,-0.308,4.8,-0.6535000000000001,-0.3869,0.367,0.006,0.012,-0.051000000000000004
1670355924.519968,-9.25,-0.296,4.7780000000000005,-0.6513,-0.38480000000000003,0.368,0.01,0.014,-0.06
1670355924.559968,-9.245000000000001,-0.332,4.756,-0.6509,-0.38630000000000003,0.3678,0.008,0.013000000000000001,-0.049
1670355924.599968,-9.239,-0.319,4.739,-0.6548,-0.3859,0.36920000000000003,-0.001,0.02,-0.052000000000000005
1670355924.639968,-9.228,-0.323,4.7860000000000005,-0.6526000000000001,-0.38420000000000004,0.3638,-0.001,0.02,-0.049
1670355924.679968,-9.232,-0.302,4.788,-0.6538,-0.38720000000000004,0.36960000000000004,0.002,0.023,-0.056
1670355924.719968,-9.186,-0.314,4.804,-0.653,-0.3864,0.3662,0.004,0.014,-0.055
1670355924.759968,-9.196,-0.329,4.809,-0.6535000000000001,-0.3871,0.3682,0.003,0.005,-0.048
1670355924.799968,-9.218,-0.307,4.791,-0.6524,-0.38670000000000004,0.3664,0.008,0.007,-0.051000000000000004
1670355924.839968,-9.215,-0.331,4.7540000000000004,-0.6533,-0.38830000000000003,0.36910000000000004,0.014,0.015,-0.051000000000000004
1670355924.879968,-9.247,-0.36,4.827,-0.6541,-0.3844,0.3693,0.006,0.023,-0.057
1670355924.919968,-9.264,-0.324,4.774,-0.6534,-0.3866,0.3685,-0.005,0.02,-0.032
1670355924.9599679,-9.3,-0.226,4.84,-0.654,-0.3844,0.36810000000000004,0.011,0.025,-0.049
1670355924.999968,-9.211,-0.34,4.742,-0.6525000000000001,-0.3866,0.36970000000000003,0.005,0.027,-0.061
1670355925.039968,-9.173,-0.329,4.774,-0.6538,-0.38570000000000004,0.3665,0.0,0.018000000000000002,-0.06
1670355925.079967,-9.224,-0.308,4.819,-0.6519,-0.3864,0.3675,-0.001,0.017,-0.046
1670355925.119967,-9.235,-0.28500000000000003,4.806,-0.6538,-0.38920000000000005,0.3677,0.003,0.015,-0.057
1670355925.159967,-9.247,-0.314,4.819,-0.654,-0.3874,0.3664,0.01,0.021,-0.065
1670355925.199967,-9.223,-0.387,4.776,-0.6533,-0.3864,0.3663,-0.007,0.028,-0.046
1670355925.239967,-9.239,-0.26,4.819,-0.655,-0.3851,0.36860000000000004,-0.005,0.028,-0.043000000000000003
1670355925.279967,-9.259,-0.28600000000000003,4.781,-0.653,-0.38720000000000004,0.3659,0.001,0.027,-0.054
1670355925.319967,-9.195,-0.326,4.738,-0.6512,-0.38580000000000003,0.36760000000000004,0.006,0.025,-0.052000000000000005
1670355925.359967,-9.226,-0.328,4.809,-0.6524,-0.38630000000000003,0.3684,0.009000000000000001,0.022,-0.051000000000000004
1670355925.399967,-9.206,-0.293,4.7700000000000005,-0.656,-0.38630000000000003,0.3675,0.01,0.018000000000000002,-0.05
1670355925.439967,-9.221,-0.316,4.779,-0.6555000000000001,-0.3855,0.36560000000000004,0.007,0.014,-0.048
1670355925.479967,-9.211,-0.307,4.751,-0.6522,-0.38730000000000003,0.3683,0.006,0.016,-0.059000000000000004
1670355925.519967,-9.218,-0.332,4.76,-0.6526000000000001,-0.3865,0.36970000000000003,0.0,0.012,-0.051000000000000004
1670355925.559967,-9.214,-0.34500000000000003,4.792,-0.6529,-0.3864,0.3674,-0.004,0.015,-0.056
1670355925.599967,-9.215,-0.326,4.809,-0.6551,-0.38420000000000004,0.3689,-0.004,0.017,-0.052000000000000005
1670355925.639967,-9.217,-0.326,4.781,-0.6529,-0.388,0.3683,0.004,0.015,-0.052000000000000005
1670355925.679967,-9.221,-0.328,4.749,-0.6551,-0.388,0.3653,0.006,0.012,-0.056
1670355925.719967,-9.23,-0.318,4.777,-0.6523,-0.38630000000000003,0.36810000000000004,0.008,0.017,-0.049
1670355925.7599669,-9.205,-0.34,4.799,-0.6532,-0.386,0.36810000000000004,0.009000000000000001,0.012,-0.051000000000000004
1670355925.799967,-9.207,-0.34900000000000003,4.777,-0.6535000000000001,-0.38620000000000004,0.36710000000000004,0.01,0.02,-0.053
1670355925.839967,-9.253,-0.325,4.821,-0.6532,-0.38820000000000005,0.36810000000000004,0.0,0.02,-0.053
1670355925.879967,-9.276,-0.266,4.776,-0.6525000000000001,-0.38630000000000003,0.369,0.009000000000000001,0.02,-0.036000000000000004
1670355925.919967,-9.204,-0.356,4.729,-0.6534,-0.38420000000000004,0.36460000000000004,0.001,0.03,-0.053
1670355925.959967,-9.16,-0.307,4.748,-0.6523,-0.38770000000000004,0.3665,-0.005,0.027,-0.052000000000000005
1670355925.9999669,-9.208,-0.292,4.776,-0.6523,-0.38670000000000004,0.36860000000000004,-0.005,0.017,-0.05
1670355926.039967,-9.221,-0.298,4.812,-0.657,-0.388,0.3682,0.006,0.01,-0.06
1670355926.079967,-9.224,-0.34,4.816,-0.6543,-0.3869,0.36660000000000004,0.012,0.014,-0.06
1670355926.119967,-9.234,-0.339,4.772,-0.6519,-0.387,0.367,-0.001,0.016,-0.053
1670355926.159967,-9.233,-0.302,4.804,-0.6528,-0.38780000000000003,0.3637,0.0,0.022,-0.044
1670355926.199966,-9.26,-0.305,4.782,-0.6518,-0.38570000000000004,0.368,0.01,0.025,-0.05
1670355926.239966,-9.196,-0.308,4.7780000000000005,-0.6534,-0.38520000000000004,0.38120000000000004,0.014,0.027,-0.048
1670355926.279966,-9.199,-0.315,4.779,-0.6668000000000001,-0.3921,0.37,0.01,0.011,-0.045
1670355926.319966,-9.199,-0.28700000000000003,4.764,-0.6668000000000001,-0.3846,0.37720000000000004,0.003,0.017,-0.05
1670355926.359966,-9.253,-0.28700000000000003,4.797,-0.6562,-0.3846,0.3578,0.014,0.014,-0.058
1670355926.399966,-9.229000000000001,-0.303,4.797,-0.6565000000000001,-0.3881,0.3578,0.006,0.012,-0.054
1670355926.439966,-9.219,-0.333,4.781,-0.6576000000000001,-0.38830000000000003,0.364,0.001,0.018000000000000002,-0.05
1670355926.479966,-9.232,-0.32,4.751,-0.655,-0.3885,0.3947,-0.001,0.025,-0.051000000000000004
1670355926.519966,-9.251,-0.337,4.764,-0.6557000000000001,-0.3844,0.3806,0.0,0.016,-0.054
1670355926.5599658,-9.226,-0.316,4.739,-0.6514,-0.38670000000000004,0.3662,0.001,0.012,-0.048
1670355926.599966,-9.212,-0.318,4.7700000000000005,-0.6537000000000001,-0.3866,0.36710000000000004,0.004,0.014,-0.047
1670355926.639966,-9.25,-0.299,4.792,-0.6519,-0.38520000000000004,0.3642,0.007,0.013000000000000001,-0.049
1670355926.679966,-9.221,-0.325,4.784,-0.6553,-0.3854,0.3652,0.012,0.019,-0.056
1670355926.719966,-9.198,-0.34700000000000003,4.7700000000000005,-0.6546000000000001,-0.38870000000000005,0.367,0.011,0.018000000000000002,-0.055
1670355926.759966,-9.194,-0.306,4.793,-0.6529,-0.3869,0.3663,0.007,0.019,-0.045
1670355926.7999659,-9.263,-0.269,4.807,-0.6529,-0.3865,0.3678,0.011,0.031,-0.052000000000000005
1670355926.839966,-9.187,-0.37,4.748,-0.6523,-0.38580000000000003,0.3674,0.011,0.024,-0.056
1670355926.879966,-9.174,-0.28800000000000003,4.727,-0.6529,-0.3859,0.3663,0.0,0.017,-0.054
1670355926.919966,-9.227,-0.289,4.752,-0.6549,-0.386,0.3653,-0.002,0.016,-0.051000000000000004
1670355926.959966,-9.26,-0.317,4.846,-0.6565000000000001,-0.387,0.3642,0.003,0.012,-0.058
1670355926.999966,-9.248,-0.305,4.8790000000000004,-0.6531,-0.3846,0.3645,0.002,0.022,-0.056
1670355927.0399659,-9.245000000000001,-0.381,4.738,-0.6539,-0.3869,0.3673,-0.008,0.016,-0.044
1670355927.079966,-9.239,-0.257,4.823,-0.6535000000000001,-0.385,0.3634,0.0,0.023,-0.047
1670355927.119966,-9.25,-0.316,4.773,-0.6535000000000001,-0.38780000000000003,0.3684,0.008,0.031,-0.052000000000000005
1670355927.159966,-9.209,-0.328,4.779,-0.653,-0.386,0.36710000000000004,0.014,0.024,-0.049
1670355927.199966,-9.198,-0.324,4.765,-0.6494,-0.38620000000000004,0.3687,0.002,0.016,-0.044
1670355927.239965,-9.22,-0.28500000000000003,4.745,-0.6528,-0.3841,0.368,0.005,0.016,-0.051000000000000004
1670355927.279965,-9.229000000000001,-0.311,4.776,-0.6508,-0.38630000000000003,0.3664,0.006,0.02,-0.057
1670355927.319965,-9.227,-0.326,4.759,-0.6538,-0.38680000000000003,0.3659,0.004,0.019,-0.05
1670355927.3599648,-9.225,-0.321,4.738,-0.6529,-0.38570000000000004,0.3672,0.001,0.012,-0.047
1670355927.399965,-9.244,-0.317,4.791,-0.6531,-0.38730000000000003,0.3687,-0.001,0.02,-0.053
1670355927.439965,-9.239,-0.31,4.78,-0.6573,-0.388,0.36710000000000004,-0.001,0.023,-0.052000000000000005
1670355927.479965,-9.213000000000001,-0.332,4.767,-0.6555000000000001,-0.3856,0.3687,0.0,0.018000000000000002,-0.051000000000000004
1670355927.519965,-9.185,-0.34500000000000003,4.764,-0.6526000000000001,-0.3859,0.367,-0.001,0.02,-0.052000000000000005
1670355927.559965,-9.236,-0.291,4.774,-0.6526000000000001,-0.3845,0.368,0.002,0.023,-0.049
1670355927.5999649,-9.221,-0.322,4.784,-0.6549,-0.3839,0.3667,0.0,0.019,-0.051000000000000004
1670355927.639965,-9.235,-0.384,4.803,-0.6534,-0.38580000000000003,0.3675,0.001,0.02,-0.058
1670355927.679965,-9.27,-0.35000000000000003,4.849,-0.6552,-0.38520000000000004,0.3674,-0.007,0.021,-0.046
1670355927.719965,-9.309000000000001,-0.246,4.839,-0.6533,-0.38530000000000003,0.36710000000000004,0.015,0.024,-0.046
1670355927.759965,-9.202,-0.35000000000000003,4.7540000000000004,-0.6511,-0.3839,0.3654,0.016,0.022,-0.059000000000000004
1670355927.799965,-9.177,-0.362,4.743,-0.654,-0.385,0.3678,0.003,0.016,-0.05
1670355927.8399649,-9.199,-0.325,4.774,-0.6527000000000001,-0.3854,0.3667,-0.009000000000000001,0.02,-0.042
1670355927.879965,-9.259,-0.304,4.805,-0.6549,-0.38570000000000004,0.3655,0.003,0.013000000000000001,-0.055
1670355927.919965,-9.239,-0.34400000000000003,4.836,-0.6507000000000001,-0.3841,0.36660000000000004,0.008,0.013000000000000001,-0.052000000000000005
1670355927.959965,-9.202,-0.393,4.781,-0.656,-0.38420000000000004,0.36510000000000004,-0.003,0.021,-0.052000000000000005
1670355927.999965,-9.273,-0.269,4.792,-0.6541,-0.3865,0.3672,0.003,0.018000000000000002,-0.047
1670355928.039965,-9.258000000000001,-0.279,4.785,-0.6521,-0.3861,0.3673,0.012,0.024,-0.048
1670355928.0799649,-9.185,-0.35000000000000003,4.784,-0.6549,-0.38470000000000004,0.3684,0.012,0.019,-0.059000000000000004
1670355928.119965,-9.203,-0.332,4.7700000000000005,-0.654,-0.38530000000000003,0.3654,0.001,0.007,-0.047
1670355928.159965,-9.214,-0.298,4.7620000000000005,-0.6514,-0.3865,0.3675,0.004,0.001,-0.049
1670355928.199965,-9.232,-0.326,4.789,-0.6518,-0.3859,0.36610000000000004,0.012,0.015,-0.06
1670355928.239965,-9.202,-0.369,4.828,-0.6514,-0.38670000000000004,0.3682,0.002,0.014,-0.062
1670355928.279964,-9.204,-0.36,4.773,-0.6557000000000001,-0.38830000000000003,0.3705,-0.001,0.017,-0.054
1670355928.319964,-9.232,-0.335,4.803,-0.6528,-0.38430000000000003,0.3683,-0.003,0.021,-0.049
1670355928.359964,-9.219,-0.334,4.798,-0.6542,-0.3825,0.3649,0.004,0.023,-0.055
1670355928.3999639,-9.207,-0.35100000000000003,4.813,-0.6544,-0.38320000000000004,0.3672,0.008,0.023,-0.06
1670355928.439964,-9.196,-0.355,4.779,-0.665,-0.3916,0.37520000000000003,0.009000000000000001,0.019,-0.046
1670355928.479964,-9.218,-0.304,4.791,-0.654,-0.3865,0.3682,0.013000000000000001,0.016,-0.046
1670355928.519964,-9.224,-0.325,4.773,-0.6548,-0.38370000000000004,0.3448,0.016,0.02,-0.053
1670355928.559964,-9.224,-0.325,4.791,-0.6548,-0.38370000000000004,0.3619,0.013000000000000001,0.027,-0.056
1670355928.599964,-9.243,-0.357,4.791,-0.6555000000000001,-0.38630000000000003,0.3619,0.002,0.019,-0.049
1670355928.6399639,-9.205,-0.331,4.792,-0.6546000000000001,-0.3866,0.3745,-0.009000000000000001,0.021,-0.034
1670355928.679964,-9.246,-0.219,4.819,-0.6551,-0.3859,0.3539,-0.003,0.032,-0.051000000000000004
1670355928.719964,-9.203,-0.418,4.707,-0.6539,-0.38580000000000003,0.3574,0.0,0.03,-0.062
1670355928.759964,-9.173,-0.324,4.749,-0.6534,-0.3861,0.366,-0.007,0.015,-0.049
1670355928.799964,-9.194,-0.35100000000000003,4.775,-0.6541,-0.38480000000000003,0.3642,-0.012,0.009000000000000001,-0.047
1670355928.839964,-9.213000000000001,-0.328,4.801,-0.6541,-0.3841,0.364,0.001,0.013000000000000001,-0.058
1670355928.8799639,-9.272,-0.356,4.832,-0.6538,-0.3866,0.3662,0.003,0.024,-0.057
1670355928.919964,-9.182,-0.429,4.789,-0.6544,-0.38630000000000003,0.3677,-0.006,0.02,-0.043000000000000003
1670355928.959964,-9.242,-0.276,4.844,-0.6537000000000001,-0.3836,0.3662,0.001,0.034,-0.047
1670355928.999964,-9.241,-0.34800000000000003,4.774,-0.6548,-0.38480000000000003,0.3654,0.007,0.037,-0.049
1670355929.039964,-9.225,-0.35000000000000003,4.765,-0.6535000000000001,-0.3839,0.36610000000000004,0.021,0.026000000000000002,-0.049
1670355929.079964,-9.226,-0.326,4.766,-0.6525000000000001,-0.384,0.3679,0.006,0.019,-0.045
1670355929.119964,-9.223,-0.299,4.7330000000000005,-0.6526000000000001,-0.3859,0.3648,0.014,0.012,-0.051000000000000004
1670355929.159964,-9.238,-0.327,4.771,-0.6526000000000001,-0.38580000000000003,0.3664,0.01,0.006,-0.057
1670355929.199964,-9.218,-0.34,4.764,-0.6606000000000001,-0.38630000000000003,0.37170000000000003,0.004,0.005,-0.054
1670355929.239964,-9.234,-0.34700000000000003,4.803,-0.6534,-0.3876,0.36510000000000004,0.0,0.004,-0.061
1670355929.279964,-9.226,-0.364,4.757,-0.6664,-0.38780000000000003,0.3668,-0.002,0.014,-0.047
1670355929.319963,-9.212,-0.34800000000000003,4.815,-0.6539,-0.3849,0.3684,0.001,0.014,-0.053
1670355929.359963,-9.208,-0.339,4.801,-0.6524,-0.38430000000000003,0.3677,0.003,0.013000000000000001,-0.052000000000000005
1670355929.399963,-9.186,-0.354,4.783,-0.6551,-0.38470000000000004,0.3683,0.008,0.021,-0.048
1670355929.4399629,-9.228,-0.339,4.8,-0.653,-0.3831,0.36560000000000004,0.002,0.019,-0.048
1670355929.479963,-9.200000000000001,-0.319,4.797,-0.6547000000000001,-0.3859,0.3667,0.014,0.021,-0.052000000000000005
1670355929.519963,-9.165000000000001,-0.384,4.797,-0.6523,-0.38580000000000003,0.3682,0.003,0.017,-0.052000000000000005
1670355929.559963,-9.254,-0.334,4.783,-0.6552,-0.38270000000000004,0.3689,0.0,0.024,-0.05
1670355929.599963,-9.26,-0.28700000000000003,4.73,-0.6527000000000001,-0.38480000000000003,0.36760000000000004,0.014,0.025,-0.047
1670355929.639963,-9.167,-0.375,4.777,-0.6553,-0.3859,0.36810000000000004,0.001,0.022,-0.055
1670355929.6799629,-9.17,-0.341,4.759,-0.6523,-0.3859,0.3668,-0.005,0.018000000000000002,-0.045
1670355929.719963,-9.25,-0.298,4.761,-0.6543,-0.38320000000000004,0.36560000000000004,0.0,0.02,-0.051000000000000004
1670355929.759963,-9.236,-0.338,4.8260000000000005,-0.6553,-0.3859,0.36860000000000004,0.008,0.014,-0.053
1670355929.799963,-9.166,-0.36,4.816,-0.6502,-0.3856,0.36510000000000004,0.0,0.015,-0.059000000000000004
1670355929.839963,-9.211,-0.323,4.774,-0.655,-0.382,0.3667,-0.009000000000000001,0.021,-0.043000000000000003
1670355929.879963,-9.249,-0.338,4.774,-0.6538,-0.3834,0.3664,0.006,0.026000000000000002,-0.04
1670355929.919963,-9.247,-0.319,4.7780000000000005,-0.6546000000000001,-0.38380000000000003,0.36860000000000004,0.021,0.025,-0.056
1670355929.959963,-9.182,-0.355,4.809,-0.6541,-0.38630000000000003,0.36560000000000004,0.016,0.024,-0.048
1670355929.999963,-9.224,-0.315,4.751,-0.6543,-0.3855,0.36970000000000003,0.005,0.004,-0.04
1670355930.039963,-9.237,-0.301,4.781,-0.6527000000000001,-0.38720000000000004,0.36810000000000004,0.012,0.003,-0.056
1670355930.079963,-9.237,-0.328,4.774,-0.6549,-0.38630000000000003,0.3665,0.01,0.019,-0.06
1670355930.119963,-9.206,-0.332,4.772,-0.6551,-0.3861,0.366,0.006,0.016,-0.051000000000000004
1670355930.159963,-9.232,-0.338,4.765,-0.6531,-0.38570000000000004,0.36810000000000004,-0.003,0.026000000000000002,-0.045
1670355930.199963,-9.221,-0.325,4.797,-0.6543,-0.38530000000000003,0.36860000000000004,0.0,0.024,-0.053
1670355930.239963,-9.193,-0.336,4.809,-0.6535000000000001,-0.38530000000000003,0.364,0.0,0.022,-0.058
1670355930.279963,-9.206,-0.331,4.822,-0.6547000000000001,-0.38320000000000004,0.3684,-0.005,0.02,-0.053
1670355930.319963,-9.229000000000001,-0.324,4.771,-0.6543,-0.383,0.3657,0.001,0.02,-0.05
1670355930.359962,-9.22,-0.34,4.783,-0.6546000000000001,-0.38380000000000003,0.36610000000000004,0.011,0.023,-0.043000000000000003
1670355930.399962,-9.197000000000001,-0.336,4.751,-0.6527000000000001,-0.3869,0.3667,0.017,0.024,-0.056
1670355930.439962,-9.145,-0.341,4.768,-0.6533,-0.3845,0.3665,0.009000000000000001,0.014,-0.046
1670355930.4799619,-9.247,-0.313,4.757,-0.6557000000000001,-0.3856,0.3659,0.007,0.018000000000000002,-0.036000000000000004
1670355930.519962,-9.223,-0.382,4.734,-0.6535000000000001,-0.3855,0.37320000000000003,0.008,0.026000000000000002,-0.048
1670355930.559962,-9.158,-0.305,4.743,-0.6541,-0.3864,0.36960000000000004,0.003,0.022,-0.051000000000000004
1670355930.599962,-9.197000000000001,-0.34,4.782,-0.6529,-0.38420000000000004,0.36710000000000004,0.002,0.015,-0.056
1670355930.639962,-9.233,-0.329,4.783,-0.6549,-0.3861,0.3675,0.005,0.016,-0.052000000000000005
1670355930.679962,-9.247,-0.331,4.839,-0.6538,-0.3871,0.3664,0.011,0.014,-0.052000000000000005
1670355930.719962,-9.177,-0.398,4.787,-0.6572,-0.38920000000000005,0.37070000000000003,0.006,0.022,-0.057
1670355930.759962,-9.177,-0.271,4.775,-0.6572,-0.3864,0.3497,-0.01,0.028,-0.043000000000000003
1670355930.799962,-9.191,-0.271,4.753,-0.6544,-0.3864,0.3497,0.008,0.027,-0.041
1670355930.839962,-9.219,-0.381,4.753,-0.6551,-0.385,0.3663,0.018000000000000002,0.029,-0.052000000000000005
1670355930.879962,-9.242,-0.31,4.78,-0.6559,-0.385,0.3604,0.009000000000000001,0.018000000000000002,-0.049
1670355930.919962,-9.192,-0.34800000000000003,4.788,-0.6513,-0.3861,0.3811,0.0,0.012,-0.044
1670355930.959962,-9.218,-0.327,4.785,-0.6542,-0.38670000000000004,0.3784,0.005,0.01,-0.049
1670355930.999962,-9.25,-0.309,4.806,-0.6552,-0.3844,0.36810000000000004,0.01,0.012,-0.056
1670355931.039962,-9.231,-0.367,4.797,-0.653,-0.38320000000000004,0.3679,0.003,0.015,-0.049
1670355931.079962,-9.208,-0.34400000000000003,4.761,-0.654,-0.3881,0.3657,-0.001,0.016,-0.051000000000000004
1670355931.119962,-9.222,-0.339,4.784,-0.6524,-0.38570000000000004,0.3648,0.001,0.018000000000000002,-0.051000000000000004
1670355931.159962,-9.245000000000001,-0.326,4.797,-0.6537000000000001,-0.38580000000000003,0.3675,0.008,0.019,-0.056
1670355931.199962,-9.218,-0.34900000000000003,4.831,-0.6534,-0.38470000000000004,0.367,0.001,0.018000000000000002,-0.052000000000000005
1670355931.239962,-9.211,-0.332,4.761,-0.652,-0.3851,0.36810000000000004,0.005,0.016,-0.05
1670355931.279962,-9.211,-0.311,4.729,-0.6537000000000001,-0.38630000000000003,0.3694,0.015,0.013000000000000001,-0.043000000000000003
1670355931.319962,-9.22,-0.326,4.752,-0.6527000000000001,-0.3885,0.365,0.012,0.02,-0.052000000000000005
1670355931.359962,-9.223,-0.309,4.7780000000000005,-0.6628000000000001,-0.3896,0.3749,0.002,0.024,-0.056
1670355931.399961,-9.16,-0.362,4.784,-0.6543,-0.38470000000000004,0.3657,0.003,0.009000000000000001,-0.051000000000000004
1670355931.439961,-9.227,-0.329,4.804,-0.6527000000000001,-0.38630000000000003,0.3693,0.008,0.007,-0.039
1670355931.479961,-9.299,-0.331,4.796,-0.6546000000000001,-0.38230000000000003,0.3679,0.005,0.02,-0.054
1670355931.5199609,-9.191,-0.291,4.7700000000000005,-0.6543,-0.3864,0.3672,0.004,0.024,-0.054
1670355931.559961,-9.206,-0.383,4.755,-0.6626000000000001,-0.38720000000000004,0.36760000000000004,-0.001,0.017,-0.039
1670355931.599961,-9.217,-0.33,4.776,-0.6559,-0.3864,0.3677,0.004,0.014,-0.047
1670355931.639961,-9.246,-0.299,4.846,-0.6543,-0.3851,0.3652,0.015,0.021,-0.063
1670355931.679961,-9.212,-0.357,4.822,-0.6516000000000001,-0.38420000000000004,0.36560000000000004,-0.001,0.022,-0.059000000000000004
1670355931.719961,-9.181000000000001,-0.34600000000000003,4.734,-0.6522,-0.3875,0.3695,-0.007,0.015,-0.039
1670355931.759961,-9.259,-0.342,4.774,-0.6551,-0.3845,0.3667,0.01,0.021,-0.044
1670355931.799961,-9.239,-0.281,4.78,-0.6522,-0.3875,0.3678,0.011,0.034,-0.051000000000000004
1670355931.839961,-9.215,-0.342,4.7700000000000005,-0.6549,-0.3865,0.3639,0.01,0.015,-0.049
1670355931.799961,-9.195,-0.313,4.745,-0.6535000000000001,-0.3859,0.3644,0.004,0.009000000000000001,-0.046
1670355931.839961,-9.247,-0.297,4.767,-0.6514,-0.38530000000000003,0.3643,0.011,0.01,-0.052000000000000005
1670355931.879961,-9.229000000000001,-0.322,4.796,-0.6545000000000001,-0.3859,0.3669,0.005,0.012,-0.057
1670355931.919961,-9.211,-0.34400000000000003,4.763,-0.6543,-0.3851,0.3684,0.0,0.013000000000000001,-0.052000000000000005
1670355931.959961,-9.227,-0.34600000000000003,4.816,-0.6552,-0.3861,0.3679,-0.014,0.017,-0.048
1670355931.999961,-9.239,-0.311,4.825,-0.6535000000000001,-0.3876,0.3675,0.0,0.02,-0.049
1670355932.039961,-9.216000000000001,-0.342,4.791,-0.6534,-0.38720000000000004,0.3677,0.004,0.022,-0.054
1670355932.079961,-9.215,-0.35000000000000003,4.809,-0.6534,-0.38720000000000004,0.3669,0.004,0.023,-0.049
1670355932.119961,-9.247,-0.34700000000000003,4.789,-0.6532,-0.383,0.36560000000000004,-0.003,0.037,-0.047
1670355932.159961,-9.218,-0.316,4.807,-0.6527000000000001,-0.38670000000000004,0.3663,0.019,0.034,-0.054
1670355932.199961,-9.232,-0.307,4.727,-0.6533,-0.3859,0.3655,0.006,0.016,-0.051000000000000004
1670355932.239961,-9.197000000000001,-0.389,4.72,-0.654,-0.3851,0.3655,-0.005,0.02,-0.036000000000000004
1670355932.279961,-9.24,-0.305,4.755,-0.6531,-0.3866,0.3654,-0.007,0.011,-0.054
1670355932.319961,-9.22,-0.305,4.801,-0.6517000000000001,-0.387,0.365,-0.001,0.002,-0.063
1670355932.359961,-9.235,-0.255,4.792,-0.6539,-0.3866,0.3664,0.018000000000000002,0.003,-0.043000000000000003
1670355932.399961,-9.208,-0.40800000000000003,4.7540000000000004,-0.6549,-0.388,0.3689,0.014,0.015,-0.045
1670355932.43996,-9.178,-0.319,4.727,-0.6518,-0.3859,0.3669,0.001,0.017,-0.056
1670355932.47996,-9.213000000000001,-0.322,4.8,-0.6552,-0.3884,0.374,-0.003,0.008,-0.045
1670355932.51996,-9.22,-0.316,4.824,-0.6508,-0.3874,0.36920000000000003,0.004,0.005,-0.048
1670355932.55996,-9.245000000000001,-0.34400000000000003,4.836,-0.6512,-0.3861,0.3668,0.005,0.013000000000000001,-0.056
1670355932.59996,-9.171,-0.41100000000000003,4.8020000000000005,-0.6546000000000001,-0.38780000000000003,0.3658,-0.001,0.017,-0.054
1670355932.63996,-9.202,-0.254,4.815,-0.653,-0.3839,0.3698,-0.007,0.012,-0.043000000000000003
1670355932.67996,-9.227,-0.334,4.768,-0.6552,-0.388,0.36560000000000004,0.007,0.026000000000000002,-0.043000000000000003
1670355932.71996,-9.177,-0.325,4.743,-0.6517000000000001,-0.3874,0.3668,0.013000000000000001,0.031,-0.056
1670355932.75996,-9.161,-0.331,4.798,-0.6542,-0.3864,0.3669,0.002,0.017,-0.04
1670355932.79996,-9.226,-0.324,4.776,-0.6507000000000001,-0.3859,0.3665,-0.001,0.01,-0.045
1670355932.83996,-9.208,-0.28400000000000003,4.751,-0.6555000000000001,-0.38580000000000003,0.3739,0.001,0.009000000000000001,-0.062
1670355932.87996,-9.203,-0.342,4.831,-0.6539,-0.38720000000000004,0.37470000000000003,-0.001,0.014,-0.066
1670355932.91996,-9.203,-0.34700000000000003,4.8020000000000005,-0.6539,-0.3851,0.3635,-0.011,0.012,-0.052000000000000005
1670355932.95996,-9.213000000000001,-0.34700000000000003,4.84,-0.6533,-0.3851,0.3635,-0.01,0.017,-0.043000000000000003
1670355932.99996,-9.217,-0.34400000000000003,4.84,-0.6552,-0.38420000000000004,0.36300000000000004,-0.004,0.025,-0.042
1670355933.03996,-9.208,-0.326,4.824,-0.6563,-0.38630000000000003,0.37560000000000004,-0.001,0.026000000000000002,-0.051000000000000004
1670355933.07996,-9.212,-0.33,4.82,-0.659,-0.38670000000000004,0.3682,0.005,0.023,-0.048
1670355933.11996,-9.209,-0.34700000000000003,4.781,-0.6575000000000001,-0.3851,0.3768,0.003,0.019,-0.054
1670355933.15996,-9.233,-0.317,4.773,-0.6519,-0.3845,0.3678,0.009000000000000001,0.017,-0.055
1670355933.19996,-9.185,-0.319,4.789,-0.6601,-0.38420000000000004,0.3668,0.013000000000000001,0.013000000000000001,-0.05
1670355933.23996,-9.208,-0.362,4.755,-0.6532,-0.3851,0.3658,-0.001,0.011,-0.054
1670355933.27996,-9.255,-0.333,4.796,-0.6565000000000001,-0.3861,0.3708,0.002,0.017,-0.049
1670355933.31996,-9.243,-0.28600000000000003,4.795,-0.653,-0.38770000000000004,0.3687,0.001,0.024,-0.05
1670355933.35996,-9.139,-0.369,4.792,-0.6576000000000001,-0.387,0.37510000000000004,0.005,0.012,-0.053
1670355933.39996,-9.158,-0.334,4.791,-0.6546000000000001,-0.385,0.3675,0.004,0.009000000000000001,-0.049
1670355933.43996,-9.229000000000001,-0.32,4.803,-0.6653,-0.3876,0.37870000000000004,0.006,0.009000000000000001,-0.051000000000000004
1670355933.479959,-9.218,-0.35000000000000003,4.854,-0.6537000000000001,-0.38670000000000004,0.3673,0.009000000000000001,0.016,-0.052000000000000005
1670355933.519959,-9.203,-0.356,4.88,-0.6612,-0.386,0.3675,0.006,0.022,-0.061
1670355933.559959,-9.195,-0.336,4.7860000000000005,-0.6546000000000001,-0.38370000000000004,0.3689,0.008,0.018000000000000002,-0.044
1670355933.599959,-9.229000000000001,-0.329,4.748,-0.6525000000000001,-0.38530000000000003,0.3667,0.009000000000000001,0.028,-0.049
1670355933.639959,-9.245000000000001,-0.311,4.8,-0.6521,-0.385,0.3659,0.008,0.03,-0.058
1670355933.679959,-9.173,-0.341,4.759,-0.6531,-0.3836,0.36860000000000004,0.002,0.022,-0.045
1670355933.719959,-9.182,-0.327,4.783,-0.6513,-0.3864,0.367,0.005,0.013000000000000001,-0.047
1670355933.759959,-9.241,-0.293,4.789,-0.6531,-0.3835,0.367,0.012,0.01,-0.056
1670355933.799959,-9.202,-0.323,4.795,-0.6529,-0.38480000000000003,0.3654,0.012,0.015,-0.061
1670355933.839959,-9.191,-0.369,4.8340000000000005,-0.654,-0.38630000000000003,0.3677,0.003,0.016,-0.056
1670355933.879959,-9.22,-0.338,4.798,-0.6543,-0.3841,0.3688,0.003,0.015,-0.056
1670355933.919959,-9.208,-0.336,4.798,-0.6532,-0.3864,0.3653,0.0,0.024,-0.056
1670355933.959959,-9.21,-0.327,4.804,-0.6538,-0.38630000000000003,0.36810000000000004,0.002,0.021,-0.058
1670355933.999959,-9.196,-0.339,4.8,-0.6546000000000001,-0.38780000000000003,0.3668,0.005,0.02,-0.052000000000000005
1670355934.039959,-9.213000000000001,-0.353,4.768,-0.6535000000000001,-0.3835,0.3672,0.001,0.021,-0.047
1670355934.079959,-9.216000000000001,-0.322,4.788,-0.6518,-0.387,0.36860000000000004,0.007,0.023,-0.055
1670355934.119959,-9.157,-0.34500000000000003,4.819,-0.6563,-0.38720000000000004,0.3663,0.011,0.017,-0.054
1670355934.159959,-9.224,-0.318,4.774,-0.6523,-0.3841,0.3693,0.012,0.015,-0.042
1670355934.199959,-9.247,-0.393,4.798,-0.6549,-0.3845,0.3685,0.017,0.023,-0.051000000000000004
1670355934.239959,-9.199,-0.296,4.761,-0.6524,-0.38570000000000004,0.3669,0.013000000000000001,0.021,-0.056
1670355934.279959,-9.191,-0.35100000000000003,4.748,-0.6541,-0.38580000000000003,0.3679,0.0,0.018000000000000002,-0.046
1670355934.319959,-9.206,-0.321,4.808,-0.6527000000000001,-0.3855,0.3678,0.0,0.011,-0.056
1670355934.359959,-9.237,-0.32,4.817,-0.6546000000000001,-0.3839,0.3709,0.007,0.009000000000000001,-0.059000000000000004
1670355934.3999588,-9.186,-0.392,4.7940000000000005,-0.654,-0.3874,0.3687,0.006,0.014,-0.057
1670355934.439959,-9.13,-0.304,4.8,-0.6563,-0.3866,0.36760000000000004,0.0,0.013000000000000001,-0.04
1670355934.479959,-9.204,-0.376,4.785,-0.6631,-0.3886,0.3665,0.009000000000000001,0.022,-0.055
1670355934.519958,-9.213000000000001,-0.295,4.792,-0.6591,-0.3859,0.3668,0.015,0.029,-0.053
1670355934.559958,-9.18,-0.357,4.755,-0.6532,-0.38570000000000004,0.3658,0.008,0.017,-0.046
1670355934.599958,-9.198,-0.32,4.7940000000000005,-0.6518,-0.3856,0.3664,0.005,0.01,-0.045
1670355934.639958,-9.221,-0.295,4.806,-0.6557000000000001,-0.38630000000000003,0.36860000000000004,0.012,0.013000000000000001,-0.056
1670355934.679958,-9.211,-0.326,4.773,-0.6525000000000001,-0.3856,0.3698,0.014,0.009000000000000001,-0.058
1670355934.719958,-9.208,-0.352,4.791,-0.6528,-0.3891,0.36860000000000004,-0.006,0.016,-0.053
1670355934.759958,-9.197000000000001,-0.34800000000000003,4.8420000000000005,-0.6542,-0.3861,0.3668,-0.003,0.012,-0.048
1670355934.799958,-9.21,-0.329,4.8340000000000005,-0.653,-0.38530000000000003,0.3665,0.004,0.016,-0.052000000000000005
1670355934.839958,-9.199,-0.36,4.8420000000000005,-0.6549,-0.3859,0.3665,0.006,0.016,-0.053
1670355934.879958,-9.192,-0.334,4.828,-0.6552,-0.3861,0.369,0.003,0.017,-0.046
1670355934.919958,-9.200000000000001,-0.34,4.8,-0.6582,-0.38680000000000003,0.3687,0.005,0.018000000000000002,-0.052000000000000005
1670355934.959958,-9.191,-0.323,4.839,-0.6551,-0.38480000000000003,0.3664,0.008,0.019,-0.054
1670355934.999958,-9.148,-0.325,4.801,-0.6522,-0.3856,0.3653,0.004,0.024,-0.045
1670355935.039958,-9.177,-0.257,4.8,-0.6566000000000001,-0.3879,0.3672,0.002,0.023,-0.038
1670355935.079958,-9.221,-0.404,4.756,-0.6531,-0.38470000000000004,0.36920000000000003,0.006,0.029,-0.044
1670355935.119958,-9.172,-0.299,4.776,-0.6536000000000001,-0.38630000000000003,0.35850000000000004,0.011,0.021,-0.059000000000000004
1670355935.159958,-9.216000000000001,-0.34400000000000003,4.768,-0.6563,-0.3854,0.35700000000000004,0.003,0.018000000000000002,-0.052000000000000005
1670355935.1999578,-9.216000000000001,-0.34400000000000003,4.7940000000000005,-0.6563,-0.3854,0.3614,-0.007,0.012,-0.049
1670355935.239958,-9.19,-0.328,4.7940000000000005,-0.6559,-0.38520000000000004,0.3614,0.007,0.006,-0.056
1670355935.279958,-9.217,-0.301,4.8500000000000005,-0.6559,-0.38830000000000003,0.3546,0.009000000000000001,0.017,-0.057
1670355935.319958,-9.16,-0.403,4.8,-0.6592,-0.38780000000000003,0.37870000000000004,-0.001,0.018000000000000002,-0.05
1670355935.359958,-9.168000000000001,-0.28600000000000003,4.82,-0.6687000000000001,-0.3899,0.38130000000000003,0.0,0.029,-0.041
1670355935.399958,-9.209,-0.363,4.7940000000000005,-0.6597000000000001,-0.38630000000000003,0.3675,0.015,0.026000000000000002,-0.056
1670355935.4399579,-9.188,-0.304,4.815,-0.656,-0.3896,0.37060000000000004,0.011,0.018000000000000002,-0.057
1670355935.479958,-9.16,-0.343,4.821,-0.6568,-0.3861,0.3689,0.002,0.011,-0.041
1670355935.519958,-9.178,-0.316,4.792,-0.6653,-0.3916,0.3754,0.007,0.012,-0.049
1670355935.559958,-9.215,-0.292,4.801,-0.6565000000000001,-0.38780000000000003,0.3642,0.009000000000000001,0.02,-0.062
1670355935.599958,-9.206,-0.35000000000000003,4.793,-0.6537000000000001,-0.38770000000000004,0.36960000000000004,0.003,0.021,-0.052000000000000005
1670355935.639957,-9.188,-0.371,4.792,-0.6532,-0.385,0.3665,-0.011,0.023,-0.049
1670355935.679957,-9.206,-0.322,4.8340000000000005,-0.6552,-0.3859,0.36810000000000004,-0.01,0.019,-0.052000000000000005
1670355935.719957,-9.205,-0.32,4.829,-0.6547000000000001,-0.3866,0.36860000000000004,0.001,0.022,-0.062
1670355935.759957,-9.22,-0.363,4.827,-0.654,-0.3855,0.367,0.0,0.021,-0.055
1670355935.799957,-9.19,-0.356,4.803,-0.6549,-0.385,0.3693,0.0,0.022,-0.044
1670355935.839957,-9.211,-0.32,4.804,-0.6561,-0.3846,0.3657,0.001,0.016,-0.048
1670355935.879957,-9.203,-0.304,4.78,-0.6539,-0.38570000000000004,0.3678,0.014,0.017,-0.051000000000000004
1670355935.919957,-9.193,-0.34600000000000003,4.8,-0.6555000000000001,-0.38720000000000004,0.3677,0.007,0.021,-0.056
1670355935.959957,-9.208,-0.364,4.84,-0.6543,-0.38670000000000004,0.36710000000000004,0.002,0.02,-0.053
1670355935.9999568,-9.232,-0.376,4.87,-0.6561,-0.38620000000000004,0.3673,-0.031,0.038,-0.026000000000000002
1670355936.039957,-9.198,-0.257,4.803,-0.6552,-0.3856,0.3667,0.0,0.016,-0.029
1670355936.079957,-9.182,-0.384,4.736,-0.6526000000000001,-0.3864,0.365,0.02,0.012,-0.067
1670355936.119957,-9.139,-0.317,4.764,-0.6512,-0.38580000000000003,0.3663,0.025,0.004,-0.059000000000000004
1670355936.159957,-9.191,-0.35100000000000003,4.7860000000000005,-0.6538,-0.3834,0.3682,0.004,0.008,-0.044
1670355936.199957,-9.269,-0.302,4.853,-0.6549,-0.3874,0.37,0.005,0.0,-0.054
1670355936.2399569,-9.205,-0.342,4.852,-0.6527000000000001,-0.3851,0.3698,0.008,0.011,-0.058
1670355936.279957,-9.215,-0.392,4.844,-0.6557000000000001,-0.3866,0.367,-0.004,0.002,-0.061
1670355936.319957,-9.178,-0.281,4.829,-0.6548,-0.38380000000000003,0.36920000000000003,-0.007,0.017,-0.047
1670355936.359957,-9.197000000000001,-0.34,4.827,-0.6562,-0.3841,0.3675,0.006,0.015,-0.052000000000000005
1670355936.399957,-9.163,-0.35000000000000003,4.796,-0.6532,-0.3869,0.3688,0.006,0.019,-0.055
1670355936.439957,-9.181000000000001,-0.343,4.812,-0.6551,-0.3866,0.3687,0.002,0.024,-0.05
1670355936.4799569,-9.201,-0.327,4.837,-0.6532,-0.3845,0.368,0.005,0.017,-0.05
1670355936.519957,-9.218,-0.337,4.817,-0.6566000000000001,-0.3846,0.3675,0.003,0.027,-0.062
1670355936.559957,-9.211,-0.355,4.788,-0.6548,-0.3829,0.36610000000000004,0.001,0.03,-0.056
1670355936.599957,-9.202,-0.382,4.8100000000000005,-0.6546000000000001,-0.3846,0.3672,-0.009000000000000001,0.028,-0.052000000000000005
1670355936.639957,-9.182,-0.34800000000000003,4.792,-0.6549,-0.3845,0.3665,-0.009000000000000001,0.027,-0.053
1670355936.679956,-9.212,-0.35000000000000003,4.765,-0.6543,-0.3845,0.3679,-0.008,0.019,-0.053
1670355936.719956,-9.217,-0.375,4.831,-0.6562,-0.383,0.3675,-0.003,0.013000000000000001,-0.047
1670355936.759956,-9.194,-0.337,4.7860000000000005,-0.6527000000000001,-0.3844,0.3675,0.004,0.002,-0.051000000000000004
1670355936.7999558,-9.196,-0.41400000000000003,4.785,-0.6546000000000001,-0.38280000000000003,0.3667,0.01,-0.003,-0.053
1670355936.839956,-9.165000000000001,-0.352,4.843,-0.6544,-0.384,0.3679,0.013000000000000001,-0.014,-0.057
1670355936.879956,-9.086,-0.422,4.965,-0.6559,-0.3844,0.367,0.008,-0.04,-0.06
1670355936.919956,-9.179,-0.40700000000000003,4.929,-0.657,-0.385,0.367,0.009000000000000001,-0.035,-0.069
1670355936.959956,-9.351,-0.314,4.896,-0.6573,-0.38430000000000003,0.3698,0.015,0.005,-0.043000000000000003
