timestamp,acc_x,acc_y,acc_z,magn_x,magn_y,magn_z,gyro_x,gyro_y,gyro_z
1670268774.08,-9.267,0.108,4.711,0.1068,0.7076,0.1613,0.02,-0.011,-0.017
1670268774.12,-9.263,0.226,4.763,0.1066,0.7069000000000001,0.166,0.018000000000000002,-0.024,-0.014
1670268774.16,-9.296,0.092,4.726,0.1066,0.7076,0.1641,0.02,-0.019,-0.005
1670268774.2,-9.278,0.14100000000000001,4.722,0.1056,0.7080000000000001,0.16440000000000002,0.018000000000000002,-0.009000000000000001,-0.001
1670268774.24,-9.247,0.157,4.715,0.10500000000000001,0.7057,0.16820000000000002,0.018000000000000002,-0.008,-0.005
1670268774.28,-9.273,0.14100000000000001,4.622,0.1053,0.7099000000000001,0.1641,0.018000000000000002,-0.006,-0.001
1670268774.32,-9.285,0.164,4.703,0.10450000000000001,0.7065,0.1641,0.026000000000000002,-0.011,-0.009000000000000001
1670268774.36,-9.303,0.129,4.655,0.1072,0.7067,0.16190000000000002,0.03,-0.015,-0.012
1670268774.4,-9.282,0.108,4.738,0.10590000000000001,0.7077,0.16240000000000002,0.006,-0.014,-0.005
1670268774.44,-9.31,0.148,4.68,0.10500000000000001,0.7065,0.1646,0.005,-0.016,0.002
1670268774.48,-9.262,0.14,4.642,0.1058,0.7088,0.16390000000000002,0.01,-0.014,0.0
1670268774.52,-9.299,0.154,4.697,0.1047,0.7072,0.1643,0.02,-0.016,-0.002
1670268774.559999,-9.284,0.129,4.6850000000000005,0.10740000000000001,0.7072,0.1642,0.022,-0.02,-0.001
1670268774.599999,-9.306000000000001,0.116,4.694,0.1076,0.7080000000000001,0.1637,0.03,-0.018000000000000002,0.003
1670268774.639999,-9.290000000000001,0.152,4.703,0.10450000000000001,0.7053,0.1632,0.017,-0.007,0.004
1670268774.6799989,-9.291,0.164,4.7090000000000005,0.10700000000000001,0.7068,0.1608,0.012,-0.013000000000000001,0.006
1670268774.719999,-9.290000000000001,0.156,4.6930000000000005,0.108,0.7063,0.16490000000000002,0.021,-0.007,0.007
1670268774.759999,-9.268,0.161,4.655,0.1056,0.7072,0.1613,0.018000000000000002,-0.005,-0.009000000000000001
1670268774.799999,-9.255,0.11900000000000001,4.646,0.1067,0.7050000000000001,0.163,0.016,-0.024,-0.002
1670268774.839999,-9.287,0.14100000000000001,4.662,0.1053,0.7072,0.16340000000000002,0.008,-0.019,0.016
1670268774.879999,-9.33,0.20700000000000002,4.686,0.1033,0.7053,0.16240000000000002,0.014,-0.006,-0.004
1670268774.919999,-9.206,0.184,4.6530000000000005,0.10590000000000001,0.7057,0.1631,0.035,-0.008,-0.014
1670268774.959999,-9.258000000000001,0.11,4.6370000000000005,0.1068,0.7063,0.1617,0.009000000000000001,-0.017,0.001
1670268774.999999,-9.32,0.177,4.666,0.1034,0.7081000000000001,0.1635,0.005,-0.018000000000000002,0.0
1670268775.039999,-9.327,0.194,4.7250000000000005,0.10250000000000001,0.7076,0.16490000000000002,0.032,-0.022,-0.016
1670268775.079999,-9.242,0.078,4.728,0.1058,0.7083,0.163,0.025,-0.024,-0.028
1670268775.119999,-9.282,0.177,4.73,0.10490000000000001,0.7066,0.1627,0.017,-0.018000000000000002,-0.007
1670268775.159999,-9.31,0.122,4.7010000000000005,0.1038,0.7061000000000001,0.1642,0.02,-0.009000000000000001,-0.007
1670268775.199999,-9.284,0.191,4.724,0.1072,0.7088,0.16160000000000002,0.033,0.0,-0.018000000000000002
1670268775.239999,-9.265,0.132,4.706,0.1,0.7047,0.1628,0.012,0.001,0.0
1670268775.279999,-9.275,0.128,4.6690000000000005,0.1066,0.7083,0.1623,0.011,-0.009000000000000001,0.004
1670268775.319999,-9.288,0.164,4.655,0.10070000000000001,0.7061000000000001,0.1658,0.016,-0.011,-0.002
1670268775.359999,-9.287,0.14100000000000001,4.694,0.1047,0.7080000000000001,0.16160000000000002,0.013000000000000001,-0.017,-0.009000000000000001
1670268775.399999,-9.282,0.132,4.675,0.1044,0.7061000000000001,0.164,0.005,-0.022,-0.003
1670268775.439999,-9.308,0.138,4.648,0.10300000000000001,0.7077,0.16110000000000002,0.006,-0.024,0.001
1670268775.479999,-9.267,0.138,4.698,0.1015,0.7061000000000001,0.1595,0.014,-0.019,-0.001
1670268775.519999,-9.302,0.159,4.678,0.10310000000000001,0.7094,0.16010000000000002,0.032,-0.021,-0.004
1670268775.559999,-9.275,0.158,4.737,0.091,0.7055,0.1688,0.03,-0.022,0.0
1670268775.599998,-9.274000000000001,0.107,4.7090000000000005,0.10360000000000001,0.7076,0.1607,0.021,-0.019,0.01
1670268775.639998,-9.253,0.14400000000000002,4.73,0.1043,0.7105,0.18810000000000002,0.018000000000000002,-0.021,0.005
1670268775.679998,-9.256,0.158,4.7090000000000005,0.10300000000000001,0.7065,0.1715,0.026000000000000002,-0.012,0.001
1670268775.719998,-9.284,0.177,4.69,0.1022,0.7048,0.1752,0.023,-0.011,-0.006
1670268775.759998,-9.252,0.168,4.728,0.1037,0.7049000000000001,0.15990000000000001,0.017,-0.009000000000000001,-0.001
1670268775.799998,-9.293000000000001,0.146,4.719,0.10160000000000001,0.7072,0.15990000000000001,-0.003,-0.004,0.013000000000000001
1670268775.839998,-9.315,0.17500000000000002,4.7,0.0979,0.7067,0.168,0.01,0.0,0.007
1670268775.879998,-9.202,0.182,4.6530000000000005,0.1018,0.7063,0.1587,0.025,-0.008,-0.01
1670268775.919998,-9.228,0.098,4.624,0.1017,0.7062,0.1631,0.006,-0.009000000000000001,-0.004
1670268775.959998,-9.318,0.18,4.679,0.10450000000000001,0.7077,0.1585,0.001,-0.014,0.003
1670268775.999998,-9.285,0.155,4.671,0.1013,0.7063,0.1643,0.014,-0.018000000000000002,-0.011
1670268776.039998,-9.294,0.067,4.697,0.1039,0.7068,0.1593,0.019,-0.015,-0.02
1670268776.079998,-9.253,0.209,4.737,0.1039,0.7083,0.1608,0.014,-0.031,0.0
1670268776.119998,-9.316,0.091,4.705,0.10400000000000001,0.7055,0.1603,0.019,-0.01,0.003
1670268776.159998,-9.244,0.164,4.7330000000000005,0.1037,0.7057,0.162,0.02,-0.003,-0.001
1670268776.199998,-9.242,0.14,4.6850000000000005,0.1033,0.7076,0.16010000000000002,0.023,-0.003,0.004
1670268776.239998,-9.263,0.16,4.642,0.1008,0.7065,0.16010000000000002,0.022,-0.01,0.005
1670268776.279998,-9.27,0.165,4.683,0.1039,0.7039000000000001,0.1605,0.022,-0.02,-0.003
1670268776.319998,-9.291,0.14100000000000001,4.698,0.1008,0.7079000000000001,0.1623,0.019,-0.013000000000000001,-0.007
1670268776.359998,-9.265,0.126,4.615,0.1018,0.7066,0.16190000000000002,0.007,-0.015,-0.002
1670268776.399998,-9.302,0.147,4.6610000000000005,0.1043,0.7080000000000001,0.1615,0.013000000000000001,-0.019,-0.002
1670268776.439998,-9.303,0.146,4.665,0.1034,0.7083,0.15990000000000001,0.011,-0.014,-0.002
1670268776.479998,-9.303,0.162,4.724,0.1041,0.7054,0.161,0.013000000000000001,-0.017,-0.007
1670268776.519998,-9.253,0.147,4.688,0.10490000000000001,0.7063,0.16190000000000002,0.021,-0.017,-0.003
1670268776.559998,-9.278,0.153,4.695,0.09920000000000001,0.7058,0.1602,0.027,-0.022,-0.005
1670268776.599998,-9.282,0.159,4.746,0.1033,0.7060000000000001,0.1607,0.015,-0.02,-0.003
1670268776.639997,-9.31,0.153,4.68,0.1024,0.7049000000000001,0.1623,0.013000000000000001,-0.012,0.0
1670268776.679997,-9.273,0.126,4.679,0.10250000000000001,0.7063,0.16160000000000002,0.024,-0.007,-0.002
1670268776.719997,-9.294,0.169,4.682,0.1,0.7066,0.16190000000000002,0.015,-0.012,0.0
1670268776.759997,-9.289,0.168,4.727,0.10310000000000001,0.7073,0.1608,0.02,-0.005,0.011
1670268776.799997,-9.333,0.14300000000000002,4.666,0.10210000000000001,0.7069000000000001,0.1603,0.019,0.0,-0.004
1670268776.839997,-9.200000000000001,0.196,4.689,0.0998,0.7048,0.1666,0.018000000000000002,-0.006,-0.002
1670268776.879997,-9.261000000000001,0.14300000000000002,4.654,0.10310000000000001,0.7057,0.16110000000000002,0.02,-0.015,0.005
1670268776.919997,-9.317,0.17500000000000002,4.683,0.1047,0.7088,0.16060000000000002,0.021,-0.018000000000000002,-0.006
1670268776.959997,-9.308,0.187,4.719,0.10310000000000001,0.7071000000000001,0.1612,0.023,-0.017,-0.015
1670268776.999997,-9.317,0.08,4.694,0.1037,0.7056,0.1621,0.004,-0.019,0.0
1670268777.039997,-9.296,0.246,4.715,0.1019,0.7070000000000001,0.15990000000000001,0.013000000000000001,-0.016,-0.001
1670268777.079997,-9.288,0.131,4.7,0.0937,0.7024,0.16820000000000002,0.016,-0.006,-0.005
1670268777.119997,-9.278,0.168,4.6850000000000005,0.0956,0.7056,0.1607,0.021,-0.003,0.001
1670268777.159997,-9.255,0.14300000000000002,4.6690000000000005,0.10060000000000001,0.7069000000000001,0.1589,0.017,-0.006,0.005
1670268777.199997,-9.279,0.19,4.686,0.1042,0.7071000000000001,0.16010000000000002,0.021,-0.012,-0.001
1670268777.239997,-9.3,0.192,4.655,0.1029,0.7086,0.1603,0.019,-0.019,-0.01
1670268777.279997,-9.275,0.134,4.64,0.10260000000000001,0.7067,0.16,0.014,-0.014,-0.009000000000000001
1670268777.319997,-9.302,0.149,4.644,0.10260000000000001,0.7021000000000001,0.16190000000000002,0.001,-0.009000000000000001,0.003
1670268777.359997,-9.306000000000001,0.171,4.654,0.1018,0.7073,0.16040000000000001,0.006,-0.009000000000000001,0.004
1670268777.399997,-9.273,0.197,4.714,0.10160000000000001,0.7062,0.1583,0.024,-0.01,-0.003
1670268777.439997,-9.288,0.169,4.657,0.1015,0.7047,0.15910000000000002,0.025,-0.015,-0.005
1670268777.479997,-9.293000000000001,0.167,4.705,0.10200000000000001,0.7061000000000001,0.16060000000000002,0.026000000000000002,-0.018000000000000002,-0.004
1670268777.519997,-9.312,0.155,4.642,0.0983,0.7058,0.1456,0.018000000000000002,-0.016,0.003
1670268777.5599968,-9.288,0.186,4.673,0.09480000000000001,0.7044,0.1544,0.027,-0.011,-0.007
1670268777.599997,-9.262,0.117,4.676,0.09860000000000001,0.7040000000000001,0.1573,0.019,-0.01,-0.001
1670268777.639997,-9.32,0.16,4.6930000000000005,0.10260000000000001,0.7072,0.1438,0.011,-0.013000000000000001,-0.005
1670268777.679996,-9.364,0.278,4.671,0.10200000000000001,0.7050000000000001,0.159,0.02,-0.012,0.016
1670268777.719996,-9.258000000000001,0.134,4.666,0.1012,0.7058,0.1615,0.02,-0.002,-0.001
1670268777.759996,-9.253,0.177,4.628,0.1044,0.7052,0.16190000000000002,0.02,-0.004,-0.014
1670268777.799996,-9.303,0.179,4.671,0.10060000000000001,0.7072,0.1575,0.004,-0.01,0.005
1670268777.839996,-9.317,0.171,4.612,0.0965,0.7036,0.1615,0.008,-0.016,-0.004
1670268777.879996,-9.305,0.2,4.746,0.0995,0.7081000000000001,0.162,0.019,-0.01,-0.007
1670268777.919996,-9.290000000000001,0.108,4.726,0.1023,0.7055,0.16010000000000002,0.009000000000000001,-0.022,-0.007
1670268777.959996,-9.335,0.198,4.674,0.1028,0.7066,0.1607,0.024,-0.007,0.0
1670268777.999996,-9.338000000000001,0.195,4.654,0.10250000000000001,0.7050000000000001,0.1595,0.019,-0.008,0.001
1670268778.039996,-9.3,0.168,4.649,0.10110000000000001,0.7076,0.16040000000000001,0.027,0.0,0.0
1670268778.079996,-9.279,0.156,4.651,0.1039,0.7058,0.1615,0.023,-0.004,0.006
1670268778.119996,-9.302,0.191,4.618,0.1058,0.7044,0.1633,0.025,-0.007,0.004
1670268778.159996,-9.277000000000001,0.197,4.663,0.10200000000000001,0.7038,0.1597,0.025,-0.019,-0.001
1670268778.199996,-9.328,0.152,4.68,0.10300000000000001,0.7055,0.1593,0.022,-0.009000000000000001,0.002
1670268778.239996,-9.282,0.183,4.612,0.1033,0.7079000000000001,0.1635,0.03,-0.01,-0.011
1670268778.279996,-9.299,0.169,4.655,0.1017,0.7033,0.1577,0.018000000000000002,-0.017,-0.002
1670268778.319996,-9.323,0.177,4.716,0.1017,0.7044,0.1602,0.013000000000000001,-0.017,-0.002
1670268778.359996,-9.354000000000001,0.189,4.668,0.10400000000000001,0.7087,0.1583,0.008,-0.027,-0.012
1670268778.399996,-9.287,0.183,4.716,0.1022,0.7041000000000001,0.1567,0.018000000000000002,-0.023,-0.004
1670268778.439996,-9.309000000000001,0.166,4.692,0.1048,0.7069000000000001,0.1582,0.009000000000000001,-0.024,-0.01
1670268778.479996,-9.257,0.196,4.72,0.09970000000000001,0.7064,0.158,0.022,-0.024,-0.01
1670268778.519996,-9.307,0.169,4.6690000000000005,0.1019,0.7054,0.1583,0.022,-0.015,-0.003
1670268778.559996,-9.308,0.155,4.6770000000000005,0.10260000000000001,0.7071000000000001,0.16010000000000002,0.009000000000000001,-0.013000000000000001,-0.003
1670268778.5999959,-9.309000000000001,0.145,4.695,0.1017,0.7035,0.1615,0.008,-0.012,-0.003
1670268778.639996,-9.290000000000001,0.17300000000000001,4.694,0.0961,0.7038,0.15710000000000002,0.004,-0.014,0.002
1670268778.679996,-9.315,0.209,4.657,0.09860000000000001,0.7037,0.1592,0.025,-0.024,0.007
1670268778.719995,-9.346,0.14300000000000002,4.644,0.1033,0.7052,0.1618,0.029,-0.008,-0.004
1670268778.759995,-9.24,0.203,4.6610000000000005,0.1012,0.7051000000000001,0.1582,0.029,-0.014,-0.015
1670268778.799995,-9.285,0.128,4.5760000000000005,0.1034,0.7046,0.1585,0.013000000000000001,-0.02,0.007
1670268778.839995,-9.303,0.212,4.724,0.1012,0.7019000000000001,0.1618,0.013000000000000001,-0.014,0.0
1670268778.879995,-9.306000000000001,0.21,4.675,0.1034,0.7060000000000001,0.15990000000000001,0.027,-0.019,-0.003
1670268778.919995,-9.279,0.113,4.663,0.1022,0.7038,0.1607,0.023,-0.022,-0.009000000000000001
1670268778.959995,-9.276,0.20400000000000001,4.684,0.10010000000000001,0.7052,0.1613,0.024,-0.022,0.004
1670268778.999995,-9.315,0.129,4.644,0.1017,0.7047,0.15860000000000002,0.03,-0.012,-0.001
1670268779.039995,-9.291,0.213,4.674,0.1004,0.7074,0.1612,0.029,-0.01,0.002
1670268779.079995,-9.273,0.183,4.68,0.08800000000000001,0.7010000000000001,0.1693,0.018000000000000002,-0.007,0.01
1670268779.119995,-9.282,0.209,4.655,0.1024,0.7057,0.1574,0.022,-0.013000000000000001,0.01
1670268779.159995,-9.296,0.23500000000000001,4.745,0.1,0.7033,0.1572,0.03,-0.012,0.0
1670268779.199995,-9.308,0.187,4.683,0.1012,0.7040000000000001,0.15990000000000001,0.023,-0.015,-0.009000000000000001
1670268779.239995,-9.267,0.161,4.696,0.10160000000000001,0.7026,0.1578,0.004,-0.016,0.0
1670268779.279995,-9.290000000000001,0.213,4.719,0.1022,0.7044,0.16190000000000002,0.007,-0.016,0.001
1670268779.319995,-9.291,0.217,4.683,0.1004,0.7042,0.1504,0.017,-0.014,-0.005
1670268779.359995,-9.297,0.20700000000000002,4.72,0.1,0.7016,0.1544,0.028,-0.017,-0.009000000000000001
1670268779.3999949,-9.303,0.211,4.706,0.0853,0.6997,0.1564,0.025,-0.016,-0.004
1670268779.439995,-9.251,0.167,4.668,0.1003,0.7032,0.19590000000000002,0.019,-0.018000000000000002,-0.005
1670268779.479995,-9.255,0.168,4.697,0.1024,0.7056,0.1693,0.015,-0.009000000000000001,-0.01
1670268779.519995,-9.256,0.22,4.659,0.1018,0.7038,0.1593,0.007,-0.012,-0.002
1670268779.559995,-9.295,0.215,4.657,0.1023,0.7061000000000001,0.1626,0.007,-0.014,-0.006
1670268779.599995,-9.345,0.185,4.674,0.10200000000000001,0.7036,0.15990000000000001,0.024,-0.01,-0.008
1670268779.6399949,-9.232,0.195,4.674,0.1023,0.7035,0.15990000000000001,0.028,-0.008,-0.013000000000000001
1670268779.679995,-9.317,0.138,4.595,0.10260000000000001,0.7050000000000001,0.16240000000000002,0.006,-0.012,-0.002
1670268779.719995,-9.327,0.228,4.658,0.1037,0.7079000000000001,0.159,0.005,-0.016,0.002
1670268779.759995,-9.290000000000001,0.192,4.6690000000000005,0.10250000000000001,0.7049000000000001,0.1587,0.015,-0.018000000000000002,-0.006
1670268779.799995,-9.294,0.08600000000000001,4.68,0.1034,0.7058,0.1603,0.028,-0.023,-0.024
1670268779.839994,-9.244,0.217,4.748,0.1029,0.7068,0.15710000000000002,0.016,-0.027,0.0
1670268779.879994,-9.282,0.122,4.7330000000000005,0.099,0.7034,0.164,0.015,-0.02,-0.002
1670268779.919994,-9.261000000000001,0.214,4.678,0.10060000000000001,0.7033,0.15940000000000001,0.023,-0.011,-0.002
1670268779.959994,-9.269,0.198,4.6770000000000005,0.10110000000000001,0.7061000000000001,0.1578,0.033,-0.009000000000000001,0.004
1670268779.999994,-9.308,0.195,4.657,0.10060000000000001,0.7065,0.15860000000000002,0.024,-0.014,0.005
1670268780.039994,-9.264,0.218,4.683,0.10400000000000001,0.7058,0.1636,0.029,-0.015,-0.003
1670268780.079994,-9.282,0.171,4.6930000000000005,0.10250000000000001,0.7061000000000001,0.16,0.032,-0.024,-0.01
1670268780.119994,-9.297,0.161,4.6370000000000005,0.1017,0.7058,0.1608,0.007,-0.016,0.0
1670268780.159994,-9.32,0.19,4.6850000000000005,0.1013,0.7050000000000001,0.1603,0.009000000000000001,-0.014,-0.005
1670268780.1999938,-9.257,0.192,4.65,0.0994,0.7058,0.1574,0.005,-0.016,0.0
1670268780.239994,-9.290000000000001,0.21,4.682,0.1027,0.7065,0.161,0.02,-0.016,-0.006
1670268780.279994,-9.287,0.192,4.695,0.10210000000000001,0.7063,0.1618,0.027,-0.011,-0.01
1670268780.319994,-9.287,0.214,4.6850000000000005,0.0983,0.7068,0.15860000000000002,0.023,-0.012,0.0
1670268780.359994,-9.242,0.138,4.745,0.10010000000000001,0.7047,0.1598,0.01,-0.017,0.006
1670268780.399994,-9.33,0.151,4.691,0.1005,0.7057,0.1621,0.003,-0.013000000000000001,0.009000000000000001
1670268780.4399939,-9.355,0.292,4.729,0.0988,0.7052,0.1584,0.023,-0.007,-0.005
1670268780.479994,-9.239,0.162,4.647,0.1004,0.7057,0.1633,0.024,-0.007,-0.005
1670268780.519994,-9.254,0.168,4.696,0.1028,0.7055,0.15910000000000002,0.016,-0.014,-0.005
1670268780.559994,-9.294,0.202,4.657,0.10010000000000001,0.7047,0.15860000000000002,0.005,-0.005,0.006
1670268780.599994,-9.311,0.19,4.674,0.10250000000000001,0.7044,0.16240000000000002,0.02,-0.015,-0.006
1670268780.639994,-9.3,0.171,4.745,0.0993,0.7059000000000001,0.163,0.021,-0.015,-0.009000000000000001
1670268780.6799939,-9.262,0.20400000000000001,4.7170000000000005,0.0979,0.7035,0.16190000000000002,0.013000000000000001,-0.023,-0.003
1670268780.719994,-9.28,0.154,4.734,0.10060000000000001,0.7019000000000001,0.1628,0.022,-0.016,-0.004
1670268780.759994,-9.264,0.189,4.673,0.09920000000000001,0.7054,0.1608,0.024,-0.016,-0.006
1670268780.799994,-9.261000000000001,0.17,4.6690000000000005,0.0983,0.7060000000000001,0.1588,0.016,-0.009000000000000001,0.013000000000000001
1670268780.839994,-9.301,0.209,4.6690000000000005,0.1013,0.7055,0.16090000000000002,0.023,-0.01,0.005
1670268780.879993,-9.297,0.241,4.696,0.0993,0.7032,0.16040000000000001,0.03,-0.008,-0.005
1670268780.919993,-9.297,0.189,4.7330000000000005,0.09390000000000001,0.7036,0.1655,0.028,-0.012,-0.004
1670268780.959993,-9.296,0.177,4.643,0.09970000000000001,0.7040000000000001,0.15940000000000001,-0.014,0.004,0.007
1670268780.9999928,-9.291,0.115,4.667,0.1013,0.7047,0.1579,-0.007,-0.005,0.014
1670268781.039993,-9.278,0.277,4.691,0.10110000000000001,0.7024,0.16090000000000002,0.028,-0.017,-0.007
1670268781.079993,-9.323,0.245,4.664,0.1013,0.7063,0.1613,0.052000000000000005,-0.027,-0.029
1670268781.119993,-9.309000000000001,0.22,4.7010000000000005,0.10060000000000001,0.7051000000000001,0.15810000000000002,0.053,-0.015,-0.014
1670268781.159993,-9.275,0.124,4.68,0.09820000000000001,0.7049000000000001,0.163,0.025,-0.019,0.0
1670268781.199993,-9.273,0.231,4.706,0.0971,0.7058,0.1464,0.014,-0.019,0.009000000000000001
1670268781.2399929,-9.302,0.23,4.7250000000000005,0.0983,0.7038,0.14750000000000002,0.031,-0.018000000000000002,0.001
1670268781.279993,-9.328,0.226,4.628,0.09970000000000001,0.7043,0.167,0.032,-0.013000000000000001,-0.004
1670268781.319993,-9.281,0.197,4.705,0.1013,0.7022,0.15760000000000002,0.023,-0.013000000000000001,-0.003
1670268781.359993,-9.299,0.227,4.647,0.0964,0.7010000000000001,0.1703,0.018000000000000002,-0.013000000000000001,0.005
1670268781.399993,-9.301,0.25,4.756,0.0978,0.7034,0.1589,0.023,-0.011,-0.004
1670268781.439993,-9.271,0.123,4.719,0.0999,0.7061000000000001,0.1589,0.016,-0.019,-0.016
1670268781.4799929,-9.274000000000001,0.302,4.765,0.10260000000000001,0.7066,0.15940000000000001,0.012,-0.02,0.003
1670268781.519993,-9.291,0.166,4.6850000000000005,0.1013,0.7047,0.1638,0.02,-0.013000000000000001,-0.004
1670268781.559993,-9.261000000000001,0.221,4.698,0.1033,0.7034,0.16090000000000002,0.027,0.0,-0.011
1670268781.599993,-9.242,0.199,4.688,0.10260000000000001,0.7038,0.15940000000000001,0.014,-0.003,0.003
1670268781.639993,-9.249,0.248,4.6450000000000005,0.09630000000000001,0.7067,0.16160000000000002,0.006,-0.005,0.004
1670268781.679993,-9.276,0.231,4.658,0.0989,0.7054,0.16160000000000002,0.034,-0.007,-0.011
1670268781.7199929,-9.279,0.183,4.741,0.0998,0.7031000000000001,0.16010000000000002,0.024,-0.015,-0.011
1670268781.759993,-9.278,0.186,4.7090000000000005,0.1012,0.7040000000000001,0.15940000000000001,0.014,-0.017,-0.012
1670268781.799993,-9.305,0.213,4.6610000000000005,0.0998,0.7054,0.15940000000000001,0.002,-0.016,-0.004
1670268781.839993,-9.284,0.225,4.715,0.1009,0.7042,0.1602,0.02,-0.015,-0.008
1670268781.879993,-9.294,0.20600000000000002,4.671,0.10160000000000001,0.7060000000000001,0.16240000000000002,0.027,-0.014,-0.007
1670268781.919992,-9.279,0.184,4.647,0.09770000000000001,0.7049000000000001,0.16010000000000002,0.03,-0.013000000000000001,0.002
1670268781.959992,-9.314,0.139,4.6290000000000004,0.1019,0.7042,0.161,0.02,-0.019,-0.001
1670268781.999992,-9.258000000000001,0.193,4.728,0.1019,0.7048,0.1605,0.013000000000000001,-0.026000000000000002,0.003
1670268782.0399919,-9.34,0.327,4.6610000000000005,0.09870000000000001,0.7040000000000001,0.1595,0.032,-0.019,0.01
1670268782.079992,-9.312,0.18,4.6610000000000005,0.1009,0.7042,0.1618,0.037,-0.011,-0.004
1670268782.119992,-9.223,0.229,4.624,0.09730000000000001,0.7021000000000001,0.1641,0.03,-0.009000000000000001,0.0
1670268782.159992,-9.275,0.19,4.6610000000000005,0.10350000000000001,0.7027,0.16620000000000001,0.015,-0.011,0.011
1670268782.199992,-9.289,0.262,4.688,0.1022,0.7041000000000001,0.1633,0.017,-0.019,0.0
1670268782.239992,-9.288,0.278,4.758,0.1014,0.7027,0.1593,0.026000000000000002,-0.01,-0.013000000000000001
1670268782.2799919,-9.292,0.164,4.679,0.10200000000000001,0.7041000000000001,0.16,0.009000000000000001,-0.017,-0.008
1670268782.319992,-9.293000000000001,0.28400000000000003,4.745,0.10310000000000001,0.7033,0.163,0.014,-0.019,-0.004
1670268782.359992,-9.281,0.241,4.728,0.10260000000000001,0.7065,0.1607,0.011,-0.01,-0.009000000000000001
1670268782.399992,-9.281,0.23,4.663,0.10250000000000001,0.7040000000000001,0.1621,0.012,-0.007,0.002
1670268782.439992,-9.306000000000001,0.229,4.703,0.1022,0.7034,0.1632,0.001,-0.003,0.011
1670268782.479992,-9.287,0.254,4.6690000000000005,0.1022,0.7030000000000001,0.1589,0.01,-0.003,0.004
1670268782.5199919,-9.27,0.251,4.755,0.1023,0.7039000000000001,0.16190000000000002,0.03,-0.014,-0.008
1670268782.559992,-9.293000000000001,0.21,4.7,0.1022,0.7056,0.1646,0.022,-0.016,-0.012
1670268782.599992,-9.279,0.18,4.66,0.0988,0.7035,0.16290000000000002,0.005,-0.016,0.002
1670268782.639992,-9.277000000000001,0.222,4.676,0.10160000000000001,0.7026,0.1622,0.005,-0.017,0.0
1670268782.679992,-9.26,0.254,4.689,0.0946,0.7002,0.1635,0.021,-0.018000000000000002,-0.003
1670268782.719992,-9.291,0.246,4.716,0.1019,0.7033,0.16240000000000002,0.031,-0.014,-0.003
1670268782.759992,-9.28,0.23700000000000002,4.697,0.1051,0.7057,0.1585,0.023,-0.011,-0.001
1670268782.799992,-9.286,0.212,4.686,0.1019,0.7041000000000001,0.16240000000000002,0.024,-0.013000000000000001,-0.013000000000000001
1670268782.839992,-9.307,0.17200000000000001,4.711,0.1028,0.7032,0.163,0.004,-0.015,0.0
1670268782.879992,-9.309000000000001,0.23700000000000002,4.69,0.101,0.7033,0.16240000000000002,0.0,-0.021,0.003
1670268782.919992,-9.346,0.354,4.731,0.1008,0.7024,0.1683,0.025,-0.005,-0.009000000000000001
1670268782.959991,-9.27,0.16,4.652,0.1028,0.7030000000000001,0.1592,0.022,-0.005,-0.018000000000000002
1670268782.999991,-9.196,0.22,4.634,0.1032,0.7022,0.16190000000000002,0.001,-0.006,0.006
1670268783.039991,-9.276,0.17500000000000002,4.642,0.1023,0.7075,0.1637,0.002,-0.007,0.003
1670268783.0799909,-9.294,0.266,4.692,0.10010000000000001,0.7040000000000001,0.1786,0.027,-0.007,-0.007
1670268783.119991,-9.304,0.16,4.763,0.10400000000000001,0.6997,0.1923,0.017,-0.012,-0.019
1670268783.159991,-9.278,0.226,4.724,0.09390000000000001,0.7033,0.1567,0.02,-0.026000000000000002,-0.006
1670268783.199991,-9.27,0.23800000000000002,4.7090000000000005,0.1047,0.7033,0.16140000000000002,0.015,-0.018000000000000002,0.003
1670268783.239991,-9.294,0.23600000000000002,4.652,0.10250000000000001,0.7068,0.16,0.02,-0.013000000000000001,-0.001
1670268783.279991,-9.275,0.23600000000000002,4.678,0.1034,0.7055,0.1626,0.019,-0.012,0.005
1670268783.3199909,-9.244,0.253,4.676,0.10250000000000001,0.7068,0.1623,0.02,-0.016,0.003
1670268783.359991,-9.281,0.227,4.689,0.101,0.7026,0.1597,0.025,-0.018000000000000002,-0.002
1670268783.399991,-9.258000000000001,0.23,4.704,0.10250000000000001,0.7045,0.1605,0.023,-0.017,-0.009000000000000001
1670268783.439991,-9.288,0.197,4.631,0.10210000000000001,0.7044,0.1646,0.014,-0.02,-0.006
1670268783.479991,-9.311,0.243,4.707,0.1033,0.7047,0.161,0.002,-0.018000000000000002,-0.004
1670268783.519991,-9.272,0.256,4.712,0.10360000000000001,0.7032,0.1622,0.003,-0.019,-0.005
1670268783.559991,-9.285,0.23900000000000002,4.749,0.0995,0.7060000000000001,0.16110000000000002,0.014,-0.014,-0.006
1670268783.599991,-9.276,0.223,4.73,0.10020000000000001,0.7030000000000001,0.1585,0.02,-0.015,-0.006
1670268783.639991,-9.257,0.201,4.763,0.10110000000000001,0.7042,0.1621,0.02,-0.013000000000000001,-0.002
1670268783.679991,-9.28,0.219,4.666,0.10010000000000001,0.7041000000000001,0.1633,0.016,-0.015,0.006
1670268783.719991,-9.288,0.23,4.681,0.10210000000000001,0.7023,0.163,0.016,-0.008,-0.001
1670268783.759991,-9.312,0.171,4.6850000000000005,0.1012,0.7035,0.16290000000000002,0.018000000000000002,-0.002,0.0
1670268783.799991,-9.273,0.263,4.739,0.1022,0.7065,0.1622,0.046,0.006,-0.005
1670268783.839991,-9.27,0.252,4.718,0.10160000000000001,0.7047,0.1598,0.029,-0.004,0.011
1670268783.879991,-9.269,0.153,4.621,0.1033,0.7051000000000001,0.1643,0.01,-0.008,-0.006
1670268783.919991,-9.269,0.244,4.654,0.09570000000000001,0.7025,0.1647,-0.008,-0.018000000000000002,-0.002
1670268783.959991,-9.275,0.25,4.689,0.1022,0.7039000000000001,0.1625,0.004,-0.024,0.001
1670268783.99999,-9.33,0.256,4.749,0.10060000000000001,0.7058,0.1631,0.024,-0.028,-0.015
1670268784.03999,-9.284,0.234,4.739,0.10200000000000001,0.7020000000000001,0.16190000000000002,0.033,-0.027,-0.023
1670268784.07999,-9.295,0.135,4.6930000000000005,0.09970000000000001,0.7019000000000001,0.16040000000000001,0.014,-0.028,-0.01
1670268784.1199899,-9.285,0.269,4.755,0.1033,0.7024,0.1638,0.013000000000000001,-0.02,0.005
1670268784.15999,-9.295,0.211,4.73,0.0998,0.7027,0.16160000000000002,0.023,-0.013000000000000001,-0.004
1670268784.19999,-9.244,0.213,4.729,0.1014,0.7039000000000001,0.1598,0.027,-0.008,-0.003
1670268784.23999,-9.243,0.202,4.755,0.1009,0.7049000000000001,0.16190000000000002,0.014,-0.008,0.008
1670268784.27999,-9.298,0.274,4.763,0.1038,0.7047,0.162,0.016,-0.009000000000000001,0.003
1670268784.31999,-9.269,0.246,4.73,0.1009,0.7054,0.1615,0.024,-0.002,-0.009000000000000001
1670268784.35999,-9.290000000000001,0.228,4.6930000000000005,0.096,0.7024,0.168,0.011,-0.007,-0.006
1670268784.39999,-9.25,0.196,4.731,0.1014,0.7044,0.16,0.001,-0.004,0.002
1670268784.43999,-9.304,0.247,4.672,0.1014,0.7010000000000001,0.1651,0.007,-0.002,0.0
1670268784.47999,-9.275,0.246,4.703,0.1042,0.7045,0.159,0.017,-0.015,-0.012
1670268784.51999,-9.264,0.20400000000000001,4.6690000000000005,0.1014,0.7074,0.16140000000000002,0.02,-0.019,-0.009000000000000001
1670268784.55999,-9.263,0.225,4.7330000000000005,0.1033,0.7041000000000001,0.16160000000000002,0.019,-0.026000000000000002,-0.005
1670268784.59999,-9.285,0.231,4.654,0.1015,0.7060000000000001,0.1627,0.015,-0.023,-0.002
1670268784.63999,-9.263,0.211,4.703,0.1034,0.7020000000000001,0.16090000000000002,0.024,-0.017,-0.008
1670268784.67999,-9.24,0.201,4.765,0.0906,0.7002,0.17200000000000001,0.016,-0.008,-0.001
1670268784.71999,-9.239,0.244,4.767,0.1012,0.7042,0.1625,0.017,-0.012,0.001
1670268784.75999,-9.317,0.19,4.715,0.10070000000000001,0.7052,0.1648,0.026000000000000002,-0.004,0.011
1670268784.79999,-9.303,0.225,4.706,0.1019,0.7019000000000001,0.1598,0.027,0.001,-0.004
1670268784.83999,-9.196,0.243,4.731,0.10200000000000001,0.7064,0.16010000000000002,0.021,-0.007,-0.001
1670268784.87999,-9.269,0.20500000000000002,4.679,0.0999,0.7026,0.15940000000000001,0.01,-0.009000000000000001,0.005
1670268784.91999,-9.261000000000001,0.253,4.704,0.0893,0.7006,0.16540000000000002,0.02,-0.018000000000000002,-0.003
1670268784.95999,-9.328,0.146,4.706,0.0954,0.7021000000000001,0.17950000000000002,0.024,-0.022,-0.019
1670268784.99999,-9.251,0.257,4.71,0.0989,0.7035,0.1494,0.008,-0.017,0.0
1670268785.039989,-9.303,0.155,4.747,0.10110000000000001,0.7017,0.14750000000000002,0.015,-0.01,0.002
1670268785.079989,-9.258000000000001,0.254,4.721,0.1034,0.7011000000000001,0.1602,0.017,-0.01,0.001
1670268785.119989,-9.232,0.228,4.683,0.1044,0.7056,0.1615,0.026000000000000002,-0.01,0.007
1670268785.1599889,-9.289,0.246,4.676,0.1017,0.7029000000000001,0.1628,0.013000000000000001,-0.005,0.007
1670268785.199989,-9.251,0.253,4.75,0.1009,0.7027,0.1632,0.037,-0.011,-0.005
1670268785.239989,-9.296,0.191,4.706,0.1028,0.7045,0.16440000000000002,0.032,-0.005,-0.008
1670268785.279989,-9.313,0.233,4.7010000000000005,0.10200000000000001,0.7040000000000001,0.16160000000000002,0.014,-0.017,-0.001
1670268785.319989,-9.261000000000001,0.23600000000000002,4.716,0.10060000000000001,0.7044,0.163,-0.001,-0.009000000000000001,0.007
1670268785.359989,-9.27,0.265,4.735,0.1,0.7035,0.1627,0.004,-0.01,-0.002
1670268785.399989,-9.274000000000001,0.247,4.772,0.1017,0.7022,0.16190000000000002,0.021,-0.012,-0.007
1670268785.439989,-9.304,0.255,4.667,0.10110000000000001,0.7041000000000001,0.16770000000000002,0.029,-0.008,-0.005
1670268785.479989,-9.275,0.225,4.678,0.10250000000000001,0.7011000000000001,0.16290000000000002,0.028,-0.013000000000000001,0.0
1670268785.519989,-9.304,0.253,4.676,0.10070000000000001,0.7021000000000001,0.15940000000000001,0.019,-0.01,-0.001
1670268785.559989,-9.269,0.25,4.707,0.1047,0.7008,0.1623,0.019,-0.011,-0.002
1670268785.599989,-9.25,0.23600000000000002,4.6850000000000005,0.10250000000000001,0.7030000000000001,0.1638,0.014,-0.013000000000000001,0.002
1670268785.639989,-9.267,0.20500000000000002,4.721,0.10250000000000001,0.7040000000000001,0.1632,0.009000000000000001,-0.018000000000000002,0.004
1670268785.679989,-9.357,0.337,4.707,0.1012,0.7047,0.1637,0.032,-0.002,-0.003
1670268785.719989,-9.228,0.223,4.6770000000000005,0.1024,0.7028,0.1626,0.023,-0.005,-0.007
1670268785.759989,-9.205,0.222,4.633,0.10020000000000001,0.7018,0.162,0.009000000000000001,-0.015,0.001
1670268785.799989,-9.282,0.28700000000000003,4.706,0.1033,0.7033,0.1627,0.014,-0.017,0.001
1670268785.839989,-9.302,0.291,4.731,0.1047,0.7003,0.16390000000000002,0.025,-0.015,-0.005
1670268785.879989,-9.267,0.233,4.724,0.10260000000000001,0.7016,0.1613,0.032,-0.015,-0.016
1670268785.919989,-9.242,0.225,4.716,0.10500000000000001,0.7014,0.1627,0.009000000000000001,-0.024,-0.001
1670268785.959989,-9.287,0.229,4.727,0.1023,0.7014,0.1623,0.007,-0.009000000000000001,0.003
1670268785.999989,-9.294,0.277,4.707,0.10200000000000001,0.7024,0.16240000000000002,0.016,0.0,-0.012
1670268786.039989,-9.245000000000001,0.256,4.714,0.10500000000000001,0.7050000000000001,0.16160000000000002,0.016,-0.003,-0.002
1670268786.079988,-9.278,0.248,4.706,0.10260000000000001,0.7025,0.1615,0.011,-0.017,0.006
1670268786.119988,-9.311,0.268,4.636,0.1027,0.7033,0.16290000000000002,0.019,-0.021,-0.007
1670268786.159988,-9.281,0.25,4.738,0.1034,0.7032,0.1623,0.015,-0.012,-0.01
1670268786.199988,-9.264,0.199,4.703,0.0985,0.6988000000000001,0.1618,0.004,-0.02,-0.008
1670268786.239988,-9.28,0.211,4.65,0.1008,0.7036,0.1607,-0.006,-0.017,0.0
1670268786.279988,-9.252,0.232,4.675,0.10070000000000001,0.7022,0.1633,0.002,-0.024,-0.008
1670268786.319988,-9.254,0.252,4.7,0.1018,0.7029000000000001,0.1626,0.024,-0.025,-0.014
1670268786.359988,-9.278,0.233,4.7010000000000005,0.1022,0.7047,0.1632,0.028,-0.03,-0.015
1670268786.399988,-9.285,0.196,4.724,0.1017,0.7047,0.163,0.015,-0.027,-0.002
1670268786.439988,-9.262,0.221,4.722,0.0878,0.7004,0.163,0.022,-0.018000000000000002,-0.002
1670268786.479988,-9.248,0.252,4.746,0.1019,0.7021000000000001,0.1637,0.023,-0.022,-0.007
1670268786.519988,-9.222,0.20500000000000002,4.681,0.0998,0.7043,0.16290000000000002,0.011,-0.014,-0.003
1670268786.559988,-9.293000000000001,0.165,4.769,0.10200000000000001,0.7025,0.1593,0.003,0.005,0.023
1670268786.599988,-9.326,0.226,4.721,0.1018,0.7049000000000001,0.16440000000000002,0.002,0.009000000000000001,0.016
1670268786.639988,-9.252,0.234,4.642,0.10350000000000001,0.7044,0.1646,0.029,-0.009000000000000001,-0.005
1670268786.679988,-9.244,0.226,4.662,0.0989,0.6989000000000001,0.16820000000000002,0.037,-0.021,-0.01
1670268786.719988,-9.303,0.28,4.614,0.1,0.7030000000000001,0.164,0.041,-0.032,-0.022
1670268786.759988,-9.247,0.234,4.749,0.1003,0.7055,0.1762,0.032,-0.031,-0.017
1670268786.799988,-9.246,0.231,4.739,0.09920000000000001,0.7027,0.1398,0.015,-0.035,-0.011
1670268786.839988,-9.309000000000001,0.228,4.757,0.09970000000000001,0.7055,0.1617,0.013000000000000001,-0.026000000000000002,-0.003
1670268786.879988,-9.272,0.268,4.7010000000000005,0.1017,0.7004,0.1501,0.023,-0.025,-0.013000000000000001
1670268786.919988,-9.231,0.23,4.731,0.1009,0.7044,0.1635,0.026000000000000002,-0.022,0.0
1670268786.959988,-9.276,0.252,4.751,0.1024,0.7033,0.1666,0.022,-0.018000000000000002,0.002
1670268786.999988,-9.259,0.256,4.732,0.10110000000000001,0.7021000000000001,0.1618,0.022,-0.018000000000000002,-0.004
1670268787.039988,-9.223,0.24,4.7940000000000005,0.09730000000000001,0.7006,0.1676,0.022,-0.013000000000000001,-0.013000000000000001
1670268787.079988,-9.252,0.199,4.731,0.10020000000000001,0.7041000000000001,0.16790000000000002,0.012,-0.013000000000000001,-0.001
1670268787.119987,-9.254,0.23600000000000002,4.8,0.0998,0.7032,0.1637,0.009000000000000001,-0.007,-0.001
1670268787.159987,-9.258000000000001,0.23900000000000002,4.748,0.10010000000000001,0.7038,0.1652,0.01,-0.003,0.003
1670268787.199987,-9.242,0.275,4.768,0.1028,0.7027,0.16570000000000001,0.015,-0.011,-0.001
1670268787.239987,-9.261000000000001,0.234,4.756,0.10260000000000001,0.7025,0.1652,0.021,-0.003,-0.001
1670268787.279987,-9.238,0.23,4.716,0.10250000000000001,0.7018,0.16340000000000002,0.023,-0.009000000000000001,-0.002
1670268787.319987,-9.247,0.245,4.707,0.1038,0.7042,0.1637,0.02,-0.009000000000000001,0.0
1670268787.359987,-9.255,0.249,4.715,0.10310000000000001,0.7038,0.16540000000000002,0.011,-0.011,0.001
1670268787.399987,-9.31,0.21,4.681,0.1019,0.7048,0.1621,0.006,-0.004,0.003
1670268787.439987,-9.341000000000001,0.312,4.749,0.1,0.7038,0.1631,0.018000000000000002,0.0,0.003
1670268787.479987,-9.237,0.216,4.674,0.1023,0.7011000000000001,0.1621,0.014,0.001,-0.013000000000000001
1670268787.519987,-9.213000000000001,0.196,4.713,0.1046,0.7007,0.16190000000000002,0.011,-0.002,-0.002
1670268787.559987,-9.292,0.246,4.662,0.10110000000000001,0.7040000000000001,0.161,0.0,-0.008,-0.001
1670268787.599987,-9.282,0.223,4.713,0.1037,0.7044,0.16160000000000002,0.011,-0.002,-0.001
1670268787.639987,-9.253,0.17400000000000002,4.7250000000000005,0.1004,0.7034,0.1608,0.013000000000000001,-0.014,-0.008
1670268787.679987,-9.26,0.251,4.73,0.1023,0.7039000000000001,0.1612,0.015,-0.018000000000000002,0.005
1670268787.719987,-9.288,0.179,4.697,0.0974,0.7036,0.16240000000000002,0.027,-0.008,-0.001
1670268787.759987,-9.253,0.264,4.72,0.1023,0.7044,0.1643,0.029,-0.001,-0.001
1670268787.799987,-9.23,0.241,4.64,0.1015,0.7032,0.161,0.035,-0.006,0.008
1670268787.839987,-9.278,0.247,4.6850000000000005,0.10310000000000001,0.7020000000000001,0.1621,0.025,-0.013000000000000001,0.005
1670268787.879987,-9.287,0.307,4.654,0.1029,0.7016,0.1615,0.036000000000000004,-0.019,-0.002
1670268787.919987,-9.28,0.257,4.722,0.10250000000000001,0.7021000000000001,0.16110000000000002,0.031,-0.019,-0.009000000000000001
1670268787.959987,-9.255,0.223,4.697,0.1039,0.7018,0.1626,0.011,-0.021,-0.007
1670268787.999987,-9.276,0.23700000000000002,4.718,0.1003,0.7049000000000001,0.162,0.003,-0.018000000000000002,0.004
1670268788.0399868,-9.276,0.26,4.698,0.10250000000000001,0.7013,0.1637,0.004,-0.009000000000000001,0.0
1670268788.079987,-9.259,0.273,4.7540000000000004,0.1051,0.7048,0.1643,0.024,-0.011,-0.003
1670268788.119987,-9.271,0.256,4.721,0.1044,0.7038,0.1574,0.025,-0.006,-0.005
1670268788.159986,-9.278,0.224,4.66,0.1039,0.7012,0.16040000000000001,0.012,-0.013000000000000001,-0.001
1670268788.199986,-9.236,0.259,4.728,0.09580000000000001,0.7007,0.17450000000000002,0.01,-0.02,-0.003
1670268788.239986,-9.293000000000001,0.228,4.749,0.1017,0.7038,0.16290000000000002,0.019,-0.016,0.013000000000000001
1670268788.279986,-9.317,0.331,4.773,0.1029,0.7033,0.163,0.031,0.0,-0.002
1670268788.319986,-9.261000000000001,0.242,4.6690000000000005,0.1056,0.7040000000000001,0.1633,0.027,-0.01,-0.007
1670268788.359986,-9.258000000000001,0.222,4.639,0.1034,0.7038,0.1632,0.007,-0.013000000000000001,0.004
1670268788.399986,-9.305,0.263,4.671,0.10020000000000001,0.7031000000000001,0.1646,0.016,-0.015,0.002
1670268788.439986,-9.28,0.302,4.714,0.08990000000000001,0.7032,0.16290000000000002,0.023,-0.012,-0.012
1670268788.479986,-9.258000000000001,0.243,4.713,0.1034,0.7015,0.1622,0.022,-0.022,-0.017
1670268788.519986,-9.229000000000001,0.244,4.75,0.1013,0.7023,0.16440000000000002,0.014,-0.021,0.003
1670268788.559986,-9.276,0.201,4.763,0.10260000000000001,0.7022,0.1637,0.017,-0.012,0.009000000000000001
1670268788.599986,-9.27,0.293,4.7330000000000005,0.1022,0.7030000000000001,0.1376,0.019,-0.003,0.002
1670268788.639986,-9.263,0.274,4.646,0.1009,0.7010000000000001,0.1933,0.026000000000000002,-0.01,0.004
1670268788.679986,-9.248,0.289,4.7090000000000005,0.09720000000000001,0.7044,0.16840000000000002,0.018000000000000002,-0.012,0.001
1670268788.719986,-9.278,0.23500000000000001,4.673,0.101,0.7025,0.151,0.022,-0.008,-0.005
1670268788.759986,-9.269,0.252,4.716,0.10310000000000001,0.7016,0.16290000000000002,0.014,-0.014,-0.007
1670268788.799986,-9.27,0.259,4.692,0.1028,0.7022,0.16140000000000002,0.01,-0.014,-0.002
1670268788.8399858,-9.287,0.269,4.688,0.1034,0.7044,0.16290000000000002,0.007,-0.018000000000000002,-0.004
1670268788.879986,-9.285,0.28200000000000003,4.743,0.10020000000000001,0.7008,0.16540000000000002,0.015,-0.02,-0.009000000000000001
1670268788.919986,-9.279,0.277,4.682,0.10310000000000001,0.7019000000000001,0.1613,0.016,-0.02,-0.001
1670268788.959986,-9.27,0.268,4.686,0.1056,0.7004,0.1645,0.023,-0.018000000000000002,-0.006
1670268788.999986,-9.257,0.229,4.663,0.1022,0.7021000000000001,0.1617,0.014,-0.017,0.002
1670268789.039986,-9.284,0.20800000000000002,4.712,0.1023,0.7028,0.16340000000000002,0.013000000000000001,-0.021,-0.001
1670268789.0799859,-9.356,0.387,4.759,0.10260000000000001,0.7001000000000001,0.1638,0.019,-0.016,0.002
1670268789.119986,-9.224,0.228,4.715,0.1019,0.7031000000000001,0.1632,0.027,-0.011,-0.009000000000000001
1670268789.159986,-9.225,0.23800000000000002,4.654,0.10260000000000001,0.7012,0.1648,0.016,-0.014,-0.004
1670268789.199986,-9.303,0.281,4.686,0.10200000000000001,0.7033,0.1656,0.005,-0.016,0.008
1670268789.239986,-9.273,0.28600000000000003,4.791,0.10250000000000001,0.7033,0.1621,0.005,-0.014,-0.003
1670268789.279985,-9.274000000000001,0.271,4.72,0.1022,0.7032,0.1626,0.029,-0.018000000000000002,-0.021
1670268789.319985,-9.267,0.219,4.716,0.1033,0.7027,0.165,0.012,-0.024,-0.01
1670268789.359985,-9.315,0.232,4.663,0.1018,0.7011000000000001,0.1622,0.011,-0.019,-0.003
1670268789.399985,-9.267,0.332,4.785,0.1022,0.7018,0.1668,0.037,0.004,0.0
1670268789.439985,-9.248,0.20400000000000001,4.713,0.10110000000000001,0.7041000000000001,0.1641,0.05,0.009000000000000001,-0.004
1670268789.479985,-9.257,0.251,4.7170000000000005,0.1014,0.7013,0.1633,0.019,-0.011,0.0
1670268789.519985,-9.256,0.295,4.694,0.10400000000000001,0.7018,0.1607,0.002,-0.021,-0.008
1670268789.559985,-9.264,0.24,4.735,0.1014,0.7027,0.1652,0.01,-0.023,-0.001
1670268789.599985,-9.261000000000001,0.28500000000000003,4.686,0.10200000000000001,0.7033,0.15960000000000002,0.014,-0.026000000000000002,-0.011
1670268789.6399848,-9.262,0.26,4.732,0.10210000000000001,0.7008,0.16040000000000001,0.003,-0.019,-0.014
1670268789.679985,-9.247,0.23800000000000002,4.707,0.10010000000000001,0.7041000000000001,0.1608,0.005,-0.022,-0.006
1670268789.719985,-9.254,0.268,4.716,0.10210000000000001,0.7048,0.16190000000000002,0.006,-0.021,0.0
1670268789.759985,-9.258000000000001,0.24,4.695,0.1039,0.7022,0.1631,0.017,-0.023,-0.005
1670268789.799985,-9.257,0.272,4.683,0.10210000000000001,0.7025,0.1632,0.017,-0.023,-0.01
1670268789.839985,-9.26,0.218,4.765,0.1008,0.7040000000000001,0.16160000000000002,0.009000000000000001,-0.018000000000000002,-0.003
1670268789.8799849,-9.263,0.189,4.759,0.1033,0.7030000000000001,0.1607,0.013000000000000001,-0.024,-0.003
1670268789.919985,-9.299,0.242,4.775,0.1005,0.7013,0.1627,0.008,-0.011,0.003
1670268789.959985,-9.296,0.324,4.795,0.1017,0.7027,0.1622,0.022,-0.005,0.011
1670268789.999985,-9.25,0.193,4.711,0.0998,0.7027,0.166,0.02,-0.006,-0.001
1670268790.039985,-9.19,0.268,4.72,0.10110000000000001,0.7027,0.1658,0.012,-0.004,-0.003
1670268790.079985,-9.275,0.244,4.71,0.1009,0.7029000000000001,0.16190000000000002,0.008,-0.006,0.002
1670268790.1199849,-9.276,0.265,4.73,0.1028,0.7033,0.16290000000000002,0.01,-0.011,-0.006
1670268790.159985,-9.238,0.28300000000000003,4.78,0.1017,0.7036,0.15940000000000001,0.012,-0.021,-0.018000000000000002
1670268790.199985,-9.272,0.17300000000000001,4.769,0.0954,0.6989000000000001,0.1671,0.008,-0.028,0.0
1670268790.239985,-9.266,0.317,4.728,0.10200000000000001,0.7047,0.1623,0.012,-0.013000000000000001,-0.003
1670268790.279985,-9.288,0.225,4.703,0.1009,0.7049000000000001,0.1626,0.015,-0.01,-0.002
1670268790.319984,-9.248,0.257,4.718,0.10260000000000001,0.7014,0.1622,0.019,-0.005,0.001
1670268790.359984,-9.235,0.232,4.724,0.1003,0.7044,0.1655,0.018000000000000002,-0.01,0.014
1670268790.399984,-9.247,0.268,4.694,0.1022,0.7035,0.1602,0.03,-0.016,-0.007
1670268790.4399838,-9.264,0.23500000000000001,4.753,0.0868,0.6964,0.15710000000000002,0.028,-0.016,-0.004
1670268790.479984,-9.27,0.227,4.716,0.1032,0.7040000000000001,0.1466,0.013000000000000001,-0.017,-0.009000000000000001
1670268790.519984,-9.276,0.257,4.711,0.1012,0.7014,0.1658,0.006,-0.015,0.001
1670268790.559984,-9.251,0.268,4.73,0.10250000000000001,0.7036,0.1827,0.015,-0.015,0.001
1670268790.599984,-9.255,0.248,4.722,0.1012,0.7011000000000001,0.1612,0.021,-0.008,-0.003
1670268790.639984,-9.251,0.245,4.705,0.1033,0.7016,0.1622,0.026000000000000002,-0.012,-0.006
1670268790.6799839,-9.267,0.23500000000000001,4.719,0.1019,0.7029000000000001,0.1666,0.02,-0.022,0.002
1670268790.719984,-9.290000000000001,0.223,4.741,0.0979,0.6997,0.1658,0.014,-0.023,-0.004
1670268790.759984,-9.3,0.33,4.777,0.10360000000000001,0.7030000000000001,0.1652,0.016,-0.015,0.0
1670268790.799984,-9.236,0.221,4.718,0.101,0.7029000000000001,0.16190000000000002,0.026000000000000002,-0.015,-0.008
1670268790.839984,-9.217,0.253,4.658,0.1019,0.7021000000000001,0.1612,0.017,-0.008,-0.007
1670268790.879984,-9.267,0.271,4.718,0.1027,0.7027,0.16570000000000001,0.007,-0.015,0.001
1670268790.9199839,-9.224,0.24,4.79,0.1014,0.7027,0.1633,0.012,-0.014,-0.006
1670268790.959984,-9.232,0.226,4.771,0.09870000000000001,0.7019000000000001,0.16290000000000002,0.022,-0.014,-0.013000000000000001
1670268790.999984,-9.191,0.254,4.837,0.1015,0.7011000000000001,0.1633,0.012,-0.021,-0.001
1670268791.039984,-9.275,0.20400000000000001,4.718,0.1013,0.7019000000000001,0.165,0.026000000000000002,-0.015,-0.007
1670268791.079984,-9.276,0.281,4.738,0.10200000000000001,0.7007,0.16240000000000002,0.026000000000000002,-0.009000000000000001,-0.005
1670268791.119984,-9.253,0.23900000000000002,4.713,0.1015,0.7054,0.16570000000000001,0.025,-0.003,0.009000000000000001
1670268791.1599839,-9.244,0.278,4.706,0.1012,0.7027,0.16190000000000002,0.021,-0.002,0.012
1670268791.199984,-9.253,0.302,4.711,0.1014,0.7046,0.1626,0.017,-0.004,0.003
1670268791.239984,-9.282,0.259,4.704,0.0951,0.7012,0.16690000000000002,0.027,-0.01,-0.006
1670268791.279984,-9.254,0.234,4.74,0.1017,0.7030000000000001,0.161,0.011,-0.016,-0.005
1670268791.319984,-9.273,0.245,4.7,0.1005,0.7033,0.1597,0.001,-0.014,0.0
1670268791.359983,-9.27,0.269,4.712,0.1009,0.7010000000000001,0.1635,0.009000000000000001,-0.016,-0.002
1670268791.399983,-9.263,0.281,4.79,0.1009,0.7016,0.1612,0.025,-0.015,-0.008
1670268791.439983,-9.247,0.249,4.704,0.1004,0.7023,0.1622,0.024,-0.016,0.0
1670268791.4799829,-9.266,0.245,4.667,0.1023,0.7026,0.16240000000000002,0.021,-0.014,-0.005
1670268791.519983,-9.208,0.252,4.7540000000000004,0.10020000000000001,0.7027,0.1618,0.01,-0.023,0.0
1670268791.559983,-9.291,0.213,4.775,0.1015,0.7027,0.1627,0.01,-0.024,0.006
1670268791.599983,-9.329,0.334,4.755,0.1033,0.7025,0.16290000000000002,0.035,-0.01,-0.009000000000000001
1670268791.639983,-9.201,0.256,4.759,0.0993,0.6997,0.1643,0.035,-0.015,-0.01
1670268791.679983,-9.197000000000001,0.23700000000000002,4.704,0.10200000000000001,0.7027,0.1622,0.009000000000000001,-0.011,0.006
1670268791.7199829,-9.278,0.268,4.753,0.1003,0.7033,0.1638,0.009000000000000001,-0.012,0.008
1670268791.759983,-9.269,0.302,4.824,0.09910000000000001,0.7033,0.1641,0.022,-0.014,-0.008
1670268791.799983,-9.222,0.216,4.782,0.099,0.7014,0.1636,0.01,-0.022,-0.019
1670268791.839983,-9.238,0.265,4.777,0.1013,0.7035,0.1627,0.013000000000000001,-0.024,-0.007
1670268791.879983,-9.263,0.226,4.809,0.1014,0.6993,0.1621,0.014,-0.013000000000000001,-0.004
1670268791.919983,-9.288,0.28400000000000003,4.694,0.0981,0.7033,0.1635,0.016,-0.002,-0.007
1670268791.9599829,-9.266,0.249,4.698,0.0999,0.7047,0.1613,0.017,-0.003,0.007
1670268791.999983,-9.261000000000001,0.266,4.695,0.10250000000000001,0.7030000000000001,0.1631,0.016,-0.002,0.001
1670268792.039983,-9.248,0.296,4.751,0.1017,0.7005,0.1627,0.021,-0.011,-0.004
1670268792.079983,-9.272,0.257,4.752,0.1022,0.7050000000000001,0.1612,0.012,-0.018000000000000002,-0.009000000000000001
1670268792.119983,-9.258000000000001,0.243,4.759,0.0995,0.7021000000000001,0.1618,0.012,-0.018000000000000002,-0.006
1670268792.159983,-9.278,0.23800000000000002,4.6610000000000005,0.1041,0.7013,0.1643,0.007,-0.018000000000000002,-0.006
1670268792.199983,-9.25,0.26,4.758,0.09860000000000001,0.7025,0.1646,0.013000000000000001,-0.012,-0.003
1670268792.239983,-9.252,0.249,4.718,0.10260000000000001,0.7022,0.164,0.019,-0.014,-0.001
1670268792.279983,-9.257,0.26,4.705,0.09280000000000001,0.7001000000000001,0.1665,0.021,-0.004,0.006
1670268792.319983,-9.226,0.196,4.763,0.0978,0.7028,0.1431,-0.018000000000000002,0.011,0.036000000000000004
1670268792.359983,-9.254,0.29,4.6850000000000005,0.09530000000000001,0.7018,0.19210000000000002,0.023,-0.004,0.014
1670268792.399982,-9.266,0.292,4.752,0.096,0.7014,0.1617,0.047,-0.014,-0.009000000000000001
1670268792.439982,-9.276,0.23900000000000002,4.721,0.1014,0.7030000000000001,0.1701,0.048,-0.042,-0.013000000000000001
1670268792.479982,-9.269,0.296,4.7330000000000005,0.0976,0.7018,0.1713,0.036000000000000004,-0.033,0.0
1670268792.5199819,-9.297,0.231,4.721,0.10160000000000001,0.7032,0.1655,0.036000000000000004,-0.01,0.008
1670268792.559982,-9.200000000000001,0.326,4.674,0.0988,0.7022,0.16540000000000002,0.036000000000000004,-0.016,-0.01
1670268792.599982,-9.243,0.277,4.7540000000000004,0.0994,0.6991,0.1658,0.016,-0.014,0.0
1670268792.639982,-9.289,0.324,4.756,0.1005,0.6989000000000001,0.1645,0.01,-0.024,0.001
1670268792.679982,-9.294,0.322,4.819,0.10200000000000001,0.7005,0.1635,0.025,-0.027,-0.005
1670268792.719982,-9.23,0.218,4.8100000000000005,0.1004,0.7014,0.1673,0.022,-0.025,-0.018000000000000002
1670268792.7599819,-9.249,0.323,4.748,0.0989,0.6998000000000001,0.1637,0.012,-0.028,-0.007
1670268792.799982,-9.253,0.233,4.748,0.10210000000000001,0.7007,0.161,0.012,-0.012,0.003
1670268792.839982,-9.227,0.292,4.721,0.0994,0.7021000000000001,0.164,0.016,0.0,-0.002
1670268792.879982,-9.223,0.271,4.708,0.10010000000000001,0.6998000000000001,0.1632,0.012,-0.003,0.009000000000000001
1670268792.919982,-9.211,0.28800000000000003,4.715,0.1019,0.6989000000000001,0.166,0.019,-0.006,0.004
1670268792.959982,-9.235,0.319,4.772,0.1008,0.6991,0.1615,0.02,-0.014,0.0
1670268792.9999819,-9.26,0.268,4.7330000000000005,0.1,0.7009000000000001,0.16290000000000002,0.015,-0.015,-0.014
1670268793.039982,-9.27,0.267,4.735,0.1019,0.7027,0.1658,0.005,-0.007,-0.006
1670268793.079982,-9.249,0.264,4.712,0.1009,0.7032,0.1627,0.0,-0.008,-0.003
1670268793.119982,-9.271,0.303,4.755,0.1019,0.7013,0.1647,0.009000000000000001,-0.007,-0.009000000000000001
1670268793.159982,-9.272,0.281,4.752,0.09680000000000001,0.7023,0.16620000000000001,0.017,-0.012,-0.009000000000000001
1670268793.199982,-9.263,0.246,4.724,0.1014,0.7018,0.1607,0.012,-0.012,-0.004
1670268793.239982,-9.239,0.229,4.726,0.10020000000000001,0.7032,0.1656,0.009000000000000001,-0.012,-0.002
1670268793.279982,-9.254,0.28200000000000003,4.6850000000000005,0.10060000000000001,0.7022,0.1676,0.007,-0.013000000000000001,-0.003
1670268793.319982,-9.288,0.28300000000000003,4.74,0.1015,0.6983,0.16160000000000002,0.008,-0.013000000000000001,-0.001
1670268793.359982,-9.252,0.262,4.745,0.1027,0.7030000000000001,0.164,0.009000000000000001,-0.007,-0.002
1670268793.399982,-9.255,0.255,4.727,0.1039,0.7031000000000001,0.1655,0.01,-0.008,-0.009000000000000001
1670268793.439981,-9.199,0.223,4.689,0.1019,0.7024,0.1638,0.001,-0.016,-0.006
1670268793.479981,-9.262,0.225,4.7250000000000005,0.10020000000000001,0.7019000000000001,0.1646,0.008,-0.019,0.014
1670268793.519981,-9.336,0.34500000000000003,4.716,0.09580000000000001,0.7033,0.1668,0.029,-0.005,-0.007
1670268793.5599809,-9.218,0.223,4.687,0.1004,0.7004,0.16140000000000002,0.027,-0.016,-0.016
1670268793.599981,-9.198,0.202,4.678,0.1022,0.7048,0.16490000000000002,0.014,-0.02,0.003
1670268793.639981,-9.301,0.258,4.7540000000000004,0.1014,0.7027,0.1638,0.008,-0.022,0.0
1670268793.679981,-9.238,0.274,4.761,0.09920000000000001,0.7041000000000001,0.1635,0.025,-0.018000000000000002,-0.008
1670268793.719981,-9.225,0.264,4.793,0.0985,0.7018,0.167,0.031,-0.026000000000000002,-0.017
1670268793.759981,-9.182,0.24,4.774,0.1024,0.7040000000000001,0.1653,0.016,-0.025,0.0
1670268793.7999809,-9.291,0.232,4.713,0.09970000000000001,0.7030000000000001,0.1615,0.018000000000000002,-0.015,0.004
1670268793.839981,-9.291,0.307,4.761,0.10070000000000001,0.7014,0.1627,0.022,-0.004,-0.001
1670268793.879981,-9.214,0.23900000000000002,4.759,0.1012,0.7022,0.16240000000000002,0.016,0.002,0.009000000000000001
1670268793.919981,-9.269,0.274,4.719,0.1022,0.7022,0.1615,0.013000000000000001,-0.004,0.007
1670268793.959981,-9.252,0.301,4.744,0.09480000000000001,0.7007,0.16870000000000002,0.019,-0.008,-0.006
1670268793.999981,-9.266,0.259,4.738,0.10020000000000001,0.6994,0.1623,0.011,-0.013000000000000001,-0.005
1670268794.039981,-9.257,0.241,4.695,0.09820000000000001,0.6998000000000001,0.1658,0.006,-0.018000000000000002,0.0
1670268794.079981,-9.278,0.254,4.713,0.1008,0.7028,0.16490000000000002,0.006,-0.015,0.004
1670268794.119981,-9.25,0.268,4.71,0.10210000000000001,0.7039000000000001,0.16390000000000002,0.015,-0.014,-0.004
1670268794.159981,-9.263,0.277,4.738,0.1003,0.7011000000000001,0.1517,0.021,-0.02,-0.003
1670268794.199981,-9.269,0.271,4.719,0.1018,0.7029000000000001,0.1615,0.035,-0.018000000000000002,-0.003
1670268794.239981,-9.26,0.249,4.73,0.0879,0.6974,0.1509,0.024,-0.012,0.0
1670268794.279981,-9.226,0.262,4.704,0.10360000000000001,0.7011000000000001,0.17320000000000002,0.02,-0.016,-0.001
1670268794.319981,-9.253,0.292,4.749,0.1033,0.7003,0.1638,0.027,-0.011,-0.003
1670268794.359981,-9.233,0.243,4.7,0.1014,0.7002,0.1643,0.01,-0.01,0.001
1670268794.399981,-9.326,0.25,4.751,0.10250000000000001,0.7010000000000001,0.1652,0.015,-0.001,0.002
1670268794.439981,-9.328,0.331,4.7700000000000005,0.0998,0.7020000000000001,0.1626,0.022,-0.004,0.013000000000000001
1670268794.399981,-9.208,0.265,4.722,0.1022,0.7003,0.1646,0.025,0.0,0.0
1670268794.439981,-9.215,0.263,4.654,0.1015,0.7030000000000001,0.16390000000000002,0.018000000000000002,-0.005,0.006
1670268794.47998,-9.249,0.304,4.777,0.10060000000000001,0.7038,0.1638,0.016,-0.014,0.004
1670268794.51998,-9.305,0.293,4.771,0.1024,0.7011000000000001,0.1635,0.026000000000000002,-0.016,-0.009000000000000001
1670268794.55998,-9.258000000000001,0.232,4.7090000000000005,0.10060000000000001,0.7010000000000001,0.16620000000000001,0.023,-0.016,-0.018000000000000002
1670268794.5999799,-9.215,0.28,4.731,0.10310000000000001,0.7010000000000001,0.1626,0.004,-0.023,0.002
1670268794.63998,-9.277000000000001,0.23500000000000001,4.721,0.1029,0.7016,0.16340000000000002,0.011,-0.01,0.0
1670268794.67998,-9.267,0.296,4.71,0.10060000000000001,0.6985,0.1626,0.02,0.002,0.003
1670268794.71998,-9.21,0.269,4.73,0.1015,0.7038,0.1622,0.02,-0.001,0.01
1670268794.75998,-9.23,0.28700000000000003,4.746,0.0985,0.7017,0.1643,0.013000000000000001,-0.008,0.002
1670268794.79998,-9.281,0.307,4.73,0.10020000000000001,0.7027,0.1607,0.027,-0.014,-0.008
1670268794.83998,-9.251,0.255,4.736,0.1023,0.6993,0.16440000000000002,0.02,-0.014,-0.011
1670268794.87998,-9.241,0.23500000000000001,4.672,0.1,0.7014,0.1661,0.0,-0.018000000000000002,0.002
1670268794.91998,-9.254,0.271,4.744,0.09860000000000001,0.7009000000000001,0.1623,0.0,-0.009000000000000001,0.0
1670268794.95998,-9.272,0.28300000000000003,4.714,0.10210000000000001,0.7022,0.1676,0.011,-0.013000000000000001,-0.001
1670268794.99998,-9.253,0.317,4.785,0.1033,0.7044,0.1633,0.024,-0.006,-0.005
1670268795.03998,-9.225,0.278,4.716,0.1028,0.7007,0.1635,0.049,-0.01,-0.008
1670268795.07998,-9.279,0.258,4.642,0.10010000000000001,0.7003,0.1651,0.019,-0.026000000000000002,-0.005
1670268795.11998,-9.276,0.265,4.747,0.1009,0.7018,0.1666,0.004,-0.031,-0.003
1670268795.15998,-9.276,0.298,4.714,0.0999,0.7010000000000001,0.16340000000000002,0.0,-0.025,0.001
1670268795.19998,-9.26,0.319,4.721,0.10200000000000001,0.7019000000000001,0.164,0.011,-0.027,-0.011
1670268795.23998,-9.32,0.266,4.752,0.1,0.7021000000000001,0.1641,0.01,-0.015,0.002
1670268795.27998,-9.352,0.338,4.708,0.09770000000000001,0.7005,0.1615,0.022,-0.006,0.0
1670268795.31998,-9.202,0.26,4.68,0.10070000000000001,0.7025,0.1641,0.016,-0.013000000000000001,-0.003
1670268795.35998,-9.214,0.267,4.7090000000000005,0.1017,0.7021000000000001,0.1643,0.016,-0.018000000000000002,-0.003
1670268795.39998,-9.26,0.313,4.71,0.09570000000000001,0.6973,0.1724,0.008,-0.021,-0.007
1670268795.43998,-9.276,0.27,4.777,0.10200000000000001,0.7023,0.1622,0.021,-0.02,-0.008
1670268795.47998,-9.23,0.243,4.8,0.09870000000000001,0.7033,0.16670000000000001,0.019,-0.023,-0.023
1670268795.519979,-9.209,0.273,4.809,0.1004,0.7007,0.165,0.01,-0.018000000000000002,-0.003
1670268795.559979,-9.278,0.23,4.686,0.10200000000000001,0.7010000000000001,0.1625,0.011,-0.008,0.001
1670268795.599979,-9.28,0.307,4.758,0.0993,0.7004,0.1666,0.016,0.002,-0.004
1670268795.639979,-9.224,0.264,4.749,0.099,0.6999000000000001,0.164,0.012,-0.005,0.0
1670268795.679979,-9.278,0.28600000000000003,4.676,0.1003,0.7008,0.165,0.014,-0.011,-0.001
1670268795.719979,-9.241,0.263,4.721,0.0901,0.6981,0.1721,0.016,-0.015,-0.007
1670268795.759979,-9.277000000000001,0.254,4.722,0.1014,0.7014,0.1631,0.018000000000000002,-0.014,-0.013000000000000001
1670268795.799979,-9.271,0.232,4.708,0.1051,0.7003,0.1642,0.005,-0.017,0.0
1670268795.839979,-9.258000000000001,0.254,4.774,0.10020000000000001,0.7025,0.1632,0.017,-0.012,-0.005
1670268795.879979,-9.256,0.281,4.706,0.0998,0.7040000000000001,0.18630000000000002,0.013000000000000001,-0.01,-0.005
1670268795.919979,-9.272,0.271,4.752,0.10360000000000001,0.7031000000000001,0.1511,0.021,-0.009000000000000001,-0.003
1670268795.959979,-9.248,0.225,4.747,0.09670000000000001,0.7006,0.16540000000000002,0.02,-0.013000000000000001,0.001
1670268795.999979,-9.266,0.26,4.752,0.1037,0.7027,0.1502,0.018000000000000002,-0.015,0.006
1670268796.039979,-9.259,0.242,4.759,0.10110000000000001,0.7003,0.1638,0.025,-0.009000000000000001,0.002
1670268796.079979,-9.254,0.292,4.7010000000000005,0.1015,0.7043,0.1647,0.022,-0.018000000000000002,0.005
1670268796.119979,-9.283,0.337,4.777,0.10310000000000001,0.7019000000000001,0.16440000000000002,0.017,-0.004,0.02
1670268796.159979,-9.312,0.229,4.686,0.1008,0.7012,0.1638,0.029,0.0,0.007
1670268796.199979,-9.198,0.316,4.673,0.10070000000000001,0.7000000000000001,0.16840000000000002,0.023,-0.004,-0.001
1670268796.239979,-9.239,0.257,4.667,0.1009,0.7006,0.16540000000000002,0.006,-0.01,0.003
1670268796.279979,-9.276,0.32,4.7330000000000005,0.10010000000000001,0.7018,0.1627,0.013000000000000001,-0.011,0.003
1670268796.319979,-9.296,0.331,4.744,0.1017,0.7020000000000001,0.1627,0.018000000000000002,-0.019,-0.005
1670268796.359979,-9.27,0.22,4.768,0.0999,0.7007,0.1637,0.023,-0.024,-0.022
1670268796.399979,-9.236,0.335,4.74,0.10010000000000001,0.7017,0.16340000000000002,0.012,-0.025,0.001
1670268796.439979,-9.291,0.231,4.711,0.1019,0.7013,0.1643,0.012,-0.018000000000000002,0.002
1670268796.479979,-9.247,0.291,4.721,0.1,0.7025,0.1612,0.017,-0.006,0.0
1670268796.519979,-9.234,0.275,4.694,0.09910000000000001,0.7021000000000001,0.1627,0.023,-0.006,0.003
1670268796.559978,-9.261000000000001,0.317,4.722,0.1013,0.7001000000000001,0.1645,0.014,-0.009000000000000001,0.005
1670268796.599978,-9.267,0.321,4.722,0.0995,0.7041000000000001,0.16290000000000002,0.031,-0.009000000000000001,0.001
1670268796.639978,-9.281,0.246,4.689,0.1009,0.7008,0.16160000000000002,0.029,-0.006,-0.002
1670268796.679978,-9.238,0.266,4.742,0.0984,0.7033,0.16540000000000002,0.006,-0.015,-0.001
1670268796.719978,-9.264,0.292,4.737,0.1004,0.6989000000000001,0.1651,0.001,-0.01,0.004
1670268796.759978,-9.269,0.321,4.734,0.0966,0.7011000000000001,0.1608,0.015,-0.015,-0.005
1670268796.799978,-9.238,0.305,4.707,0.1014,0.7024,0.1637,0.024,-0.015,-0.012
1670268796.839978,-9.279,0.296,4.721,0.101,0.6997,0.166,0.021,-0.013000000000000001,-0.005
1670268796.879978,-9.258000000000001,0.277,4.724,0.1012,0.7027,0.16490000000000002,0.021,-0.016,-0.009000000000000001
1670268796.919978,-9.236,0.304,4.718,0.1005,0.7014,0.1625,0.009000000000000001,-0.018000000000000002,-0.009000000000000001
1670268796.959978,-9.177,0.292,4.732,0.09920000000000001,0.7009000000000001,0.16190000000000002,0.002,-0.023,-0.011
1670268796.999978,-9.266,0.259,4.76,0.10060000000000001,0.7038,0.1642,0.001,-0.019,0.006
1670268797.039978,-9.304,0.352,4.742,0.101,0.7017,0.16110000000000002,0.024,-0.004,-0.001
1670268797.079978,-9.206,0.256,4.73,0.1034,0.7036,0.1641,0.025,-0.002,-0.013000000000000001
1670268797.119978,-9.247,0.25,4.6450000000000005,0.10010000000000001,0.7009000000000001,0.1647,0.003,-0.009000000000000001,0.001
1670268797.159978,-9.294,0.334,4.73,0.10200000000000001,0.7029000000000001,0.1652,0.003,-0.011,-0.003
1670268797.199978,-9.274000000000001,0.315,4.748,0.1,0.7003,0.1617,0.023,-0.019,-0.018000000000000002
1670268797.239978,-9.237,0.262,4.823,0.10110000000000001,0.7034,0.1647,0.009000000000000001,-0.028,-0.023
1670268797.279978,-9.225,0.257,4.799,0.0994,0.7013,0.16690000000000002,0.012,-0.027,-0.005
1670268797.319978,-9.287,0.241,4.69,0.0998,0.7045,0.15910000000000002,0.009000000000000001,-0.016,0.001
1670268797.359978,-9.248,0.301,4.736,0.1004,0.7001000000000001,0.164,0.017,-0.017,-0.001
1670268797.399978,-9.243,0.28400000000000003,4.747,0.1009,0.7011000000000001,0.163,0.021,-0.006,0.007
1670268797.439978,-9.226,0.28600000000000003,4.768,0.1008,0.6999000000000001,0.1676,0.019,-0.008,-0.002
1670268797.4799778,-9.27,0.297,4.712,0.0993,0.7010000000000001,0.16490000000000002,0.026000000000000002,-0.011,-0.002
1670268797.519978,-9.271,0.256,4.791,0.10110000000000001,0.7033,0.164,0.012,-0.017,-0.009000000000000001
1670268797.559978,-9.266,0.243,4.711,0.0995,0.7030000000000001,0.1648,0.005,-0.015,-0.002
1670268797.599977,-9.28,0.265,4.688,0.10060000000000001,0.7016,0.1665,0.0,-0.013000000000000001,0.0
1670268797.639977,-9.261000000000001,0.28400000000000003,4.699,0.1038,0.7010000000000001,0.16290000000000002,0.008,-0.015,0.0
1670268797.679977,-9.273,0.325,4.7330000000000005,0.10350000000000001,0.7000000000000001,0.16110000000000002,0.027,-0.016,-0.006
1670268797.719977,-9.276,0.265,4.7250000000000005,0.085,0.6985,0.1544,0.029,-0.019,-0.006
1670268797.759977,-9.267,0.275,4.686,0.0995,0.7000000000000001,0.16870000000000002,0.028,-0.016,-0.007
1670268797.799977,-9.241,0.289,4.766,0.1003,0.7032,0.1615,0.015,-0.018000000000000002,-0.005
1670268797.839977,-9.338000000000001,0.278,4.748,0.099,0.7013,0.17600000000000002,0.013000000000000001,-0.02,-0.002
1670268797.879977,-9.341000000000001,0.309,4.768,0.1012,0.7011000000000001,0.1555,0.005,0.008,0.018000000000000002
1670268797.919977,-9.226,0.244,4.702,0.1028,0.7014,0.1645,-0.014,0.027,0.021
1670268797.959977,-9.233,0.331,4.671,0.10200000000000001,0.7037,0.15990000000000001,0.018000000000000002,-0.003,-0.002
1670268797.999977,-9.311,0.337,4.64,0.1032,0.7021000000000001,0.16290000000000002,0.021,-0.008,-0.003
1670268798.039977,-9.294,0.3,4.684,0.1009,0.7030000000000001,0.16290000000000002,0.034,-0.026000000000000002,-0.02
1670268798.079977,-9.297,0.307,4.7860000000000005,0.09870000000000001,0.6992,0.1658,0.037,-0.039,-0.023
1670268798.119977,-9.266,0.28500000000000003,4.7540000000000004,0.1029,0.7008,0.16440000000000002,0.021,-0.041,-0.013000000000000001
1670268798.159977,-9.274000000000001,0.28300000000000003,4.746,0.1022,0.7001000000000001,0.1637,0.037,-0.026000000000000002,-0.013000000000000001
1670268798.199977,-9.242,0.281,4.746,0.1023,0.7004,0.1626,0.028,-0.01,-0.003
1670268798.239977,-9.232,0.268,4.765,0.10060000000000001,0.6989000000000001,0.16590000000000002,0.021,-0.016,-0.006
1670268798.2799768,-9.26,0.308,4.742,0.1012,0.7025,0.1648,0.014,-0.009000000000000001,0.005
1670268798.319977,-9.247,0.324,4.798,0.1027,0.7033,0.1656,0.017,-0.01,-0.004
1670268798.359977,-9.218,0.28800000000000003,4.804,0.1033,0.7011000000000001,0.16570000000000001,0.014,-0.011,-0.01
1670268798.399977,-9.233,0.242,4.774,0.1033,0.7002,0.1647,0.008,-0.009000000000000001,-0.01
1670268798.439977,-9.255,0.269,4.7090000000000005,0.1022,0.7014,0.1631,-0.004,-0.003,-0.002
1670268798.479977,-9.232,0.292,4.759,0.0959,0.7005,0.1641,0.001,0.0,-0.003
1670268798.5199769,-9.25,0.29,4.694,0.10160000000000001,0.7021000000000001,0.1638,0.014,0.002,-0.008
1670268798.559977,-9.269,0.29,4.731,0.1,0.7033,0.1642,0.017,-0.004,-0.006
1670268798.599977,-9.266,0.254,4.711,0.1039,0.7016,0.1641,0.021,-0.007,-0.006
1670268798.639977,-9.266,0.249,4.718,0.1015,0.7014,0.166,0.009000000000000001,-0.02,-0.009000000000000001
1670268798.679977,-9.249,0.274,4.711,0.101,0.7005,0.1621,0.008,-0.02,-0.002
1670268798.719976,-9.297,0.304,4.721,0.10060000000000001,0.7009000000000001,0.16620000000000001,0.02,-0.016,0.01
1670268798.759976,-9.265,0.254,4.783,0.1017,0.7032,0.1627,0.025,-0.007,0.0
1670268798.799976,-9.184000000000001,0.3,4.755,0.09870000000000001,0.7008,0.1613,0.025,-0.005,-0.005
1670268798.839976,-9.251,0.251,4.696,0.10310000000000001,0.7027,0.166,0.014,-0.016,0.004
1670268798.879976,-9.25,0.301,4.718,0.1019,0.7013,0.16290000000000002,0.018000000000000002,-0.015,0.005
1670268798.919976,-9.261000000000001,0.297,4.739,0.1009,0.7003,0.165,0.025,-0.018000000000000002,-0.008
1670268798.959976,-9.244,0.226,4.78,0.1017,0.7025,0.1625,0.021,-0.019,-0.006
1670268798.999976,-9.259,0.354,4.746,0.0993,0.6997,0.168,0.022,-0.023,-0.002
1670268799.039976,-9.277000000000001,0.24,4.78,0.1023,0.7017,0.1608,0.018000000000000002,-0.012,0.002
1670268799.0799758,-9.243,0.319,4.736,0.1012,0.7033,0.16570000000000001,0.016,-0.003,0.005
1670268799.119976,-9.235,0.274,4.763,0.10110000000000001,0.6993,0.16240000000000002,0.018000000000000002,-0.007,0.013000000000000001
1670268799.159976,-9.276,0.326,4.68,0.0984,0.6993,0.1636,0.021,-0.013000000000000001,0.006
1670268799.199976,-9.279,0.329,4.7250000000000005,0.0999,0.7011000000000001,0.1641,0.028,-0.016,-0.012
1670268799.239976,-9.266,0.277,4.698,0.0884,0.6953,0.17070000000000002,0.021,-0.018000000000000002,-0.01
1670268799.279976,-9.252,0.281,4.735,0.10060000000000001,0.7014,0.1638,0.006,-0.019,-0.005
1670268799.3199759,-9.284,0.31,4.724,0.1017,0.7002,0.166,0.004,-0.014,0.002
1670268799.359976,-9.234,0.32,4.745,0.1033,0.7027,0.1635,0.02,-0.011,0.0
1670268799.399976,-9.244,0.292,4.691,0.10010000000000001,0.7001000000000001,0.1635,0.028,-0.014,-0.009000000000000001
1670268799.439976,-9.243,0.262,4.774,0.1028,0.7016,0.164,0.018000000000000002,-0.018000000000000002,-0.01
1670268799.479976,-9.247,0.267,4.73,0.0955,0.7013,0.1678,0.01,-0.019,0.0
1670268799.519976,-9.219,0.304,4.775,0.09970000000000001,0.7000000000000001,0.1655,0.012,-0.022,0.004
1670268799.5599759,-9.285,0.36,4.764,0.09860000000000001,0.7025,0.1673,0.033,-0.015,0.003
1670268799.599976,-9.294,0.278,4.713,0.0984,0.6997,0.1665,0.04,-0.005,-0.011
1670268799.639976,-9.218,0.335,4.734,0.0998,0.7000000000000001,0.1875,0.022,-0.004,-0.004
1670268799.679976,-9.24,0.33,4.718,0.0868,0.6954,0.1759,0.002,-0.012,0.006
1670268799.719976,-9.285,0.34500000000000003,4.748,0.0995,0.7024,0.1686,0.012,-0.01,-0.001
1670268799.759975,-9.267,0.232,4.756,0.10110000000000001,0.7008,0.164,0.029,-0.019,-0.009000000000000001
1670268799.799975,-9.218,0.356,4.785,0.1022,0.7016,0.162,0.02,-0.023,-0.007
1670268799.839975,-9.286,0.24,4.711,0.1012,0.7016,0.1622,0.018000000000000002,-0.024,-0.004
1670268799.879975,-9.216000000000001,0.29,4.756,0.10310000000000001,0.6983,0.16140000000000002,0.014,-0.012,-0.005
1670268799.919975,-9.245000000000001,0.28700000000000003,4.72,0.09910000000000001,0.6977,0.1666,0.02,-0.006,0.006
1670268799.959975,-9.257,0.32,4.7250000000000005,0.1023,0.7005,0.1636,0.022,-0.008,0.006
1670268799.999975,-9.261000000000001,0.322,4.719,0.09870000000000001,0.7007,0.16620000000000001,0.02,-0.009000000000000001,-0.001
1670268800.039975,-9.255,0.294,4.743,0.09960000000000001,0.6991,0.16190000000000002,0.012,-0.014,-0.006
1670268800.079975,-9.241,0.261,4.695,0.1027,0.7018,0.164,0.003,-0.014,-0.006
1670268800.1199749,-9.244,0.297,4.732,0.1008,0.7000000000000001,0.1637,0.002,-0.016,0.0
1670268800.159975,-9.246,0.359,4.789,0.10250000000000001,0.7010000000000001,0.16440000000000002,0.006,-0.018000000000000002,-0.007
1670268800.199975,-9.279,0.309,4.686,0.1014,0.6996,0.1637,0.021,-0.011,-0.007
1670268800.239975,-9.244,0.301,4.682,0.1009,0.7030000000000001,0.16190000000000002,0.027,-0.01,-0.002
1670268800.279975,-9.229000000000001,0.28300000000000003,4.7700000000000005,0.0989,0.6997,0.164,0.022,-0.012,-0.001
1670268800.319975,-9.185,0.269,4.7330000000000005,0.10210000000000001,0.7007,0.1643,0.009000000000000001,-0.017,0.003
1670268800.3599749,-9.288,0.28400000000000003,4.771,0.0998,0.6979000000000001,0.1626,0.012,-0.016,0.001
1670268800.399975,-9.316,0.40800000000000003,4.798,0.1009,0.7005,0.1651,0.029,-0.013000000000000001,-0.003
1670268800.439975,-9.212,0.268,4.704,0.10210000000000001,0.7002,0.1652,0.029,-0.017,-0.013000000000000001
1670268800.479975,-9.209,0.269,4.719,0.09910000000000001,0.7014,0.1683,0.014,-0.01,-0.002
1670268800.519975,-9.281,0.305,4.736,0.1019,0.6999000000000001,0.1699,0.005,-0.013000000000000001,0.01
1670268800.559975,-9.237,0.327,4.7620000000000005,0.1,0.7006,0.164,0.01,-0.016,-0.004
1670268800.5999749,-9.221,0.292,4.833,0.09870000000000001,0.7003,0.1646,0.019,-0.014,-0.017
1670268800.639975,-9.208,0.311,4.781,0.1029,0.7021000000000001,0.16490000000000002,0.007,-0.027,0.002
1670268800.679975,-9.241,0.247,4.759,0.1024,0.6985,0.1658,0.023,-0.005,0.009000000000000001
1670268800.719975,-9.288,0.381,4.759,0.1012,0.7014,0.16440000000000002,0.051000000000000004,0.003,-0.005
1670268800.759975,-9.206,0.28,4.707,0.1028,0.7014,0.1652,0.029,-0.008,0.006
1670268800.799974,-9.233,0.301,4.724,0.1027,0.6988000000000001,0.16820000000000002,0.005,-0.012,0.002
1670268800.839974,-9.309000000000001,0.331,4.734,0.10070000000000001,0.7009000000000001,0.163,0.007,-0.014,0.013000000000000001
1670268800.879974,-9.236,0.352,4.7540000000000004,0.10260000000000001,0.6989000000000001,0.16620000000000001,0.016,-0.031,-0.015
1670268800.9199739,-9.278,0.307,4.7540000000000004,0.1034,0.6991,0.1668,0.006,-0.025,-0.016
1670268800.959974,-9.251,0.29,4.712,0.10210000000000001,0.7019000000000001,0.1633,0.003,-0.021,-0.006
1670268800.999974,-9.242,0.296,4.798,0.1022,0.7006,0.1655,0.006,-0.021,-0.004
1670268801.039974,-9.237,0.34500000000000003,4.768,0.0949,0.6999000000000001,0.1637,0.02,-0.026000000000000002,-0.018000000000000002
1670268801.079974,-9.253,0.301,4.751,0.09860000000000001,0.7009000000000001,0.1655,0.026000000000000002,-0.02,-0.006
1670268801.119974,-9.24,0.28800000000000003,4.7,0.1004,0.7025,0.1652,0.021,-0.023,-0.006
1670268801.1599739,-9.22,0.298,4.788,0.1004,0.7001000000000001,0.1665,0.014,-0.022,-0.008
1670268801.199974,-9.215,0.266,4.823,0.1008,0.7022,0.164,0.007,-0.019,-0.003
1670268801.239974,-9.271,0.28700000000000003,4.788,0.0907,0.6982,0.16870000000000002,0.017,-0.013000000000000001,0.005
1670268801.279974,-9.290000000000001,0.366,4.824,0.1009,0.7005,0.1673,0.026000000000000002,0.0,-0.005
1670268801.319974,-9.194,0.277,4.768,0.1019,0.7018,0.16620000000000001,0.014,-0.007,-0.009000000000000001
1670268801.359974,-9.18,0.281,4.724,0.1028,0.7043,0.1645,0.004,-0.009000000000000001,0.007
1670268801.3999739,-9.264,0.305,4.6930000000000005,0.1012,0.7011000000000001,0.1661,0.005,-0.014,0.0
1670268801.439974,-9.233,0.301,4.7700000000000005,0.1005,0.7011000000000001,0.1547,0.034,-0.014,-0.019
1670268801.479974,-9.203,0.23700000000000002,4.774,0.0945,0.6994,0.1658,0.015,-0.019,-0.018000000000000002
1670268801.519974,-9.229000000000001,0.315,4.783,0.10060000000000001,0.7025,0.1471,0.013000000000000001,-0.023,-0.003
1670268801.559974,-9.235,0.314,4.731,0.10250000000000001,0.7010000000000001,0.1694,0.017,-0.005,0.003
1670268801.599974,-9.213000000000001,0.294,4.752,0.09870000000000001,0.6975,0.162,0.025,0.001,0.001
1670268801.6399739,-9.214,0.298,4.743,0.1005,0.7016,0.1656,0.01,0.0,0.009000000000000001
1670268801.679974,-9.261000000000001,0.33,4.75,0.1,0.6996,0.16570000000000001,0.019,-0.005,-0.001
1670268801.719974,-9.229000000000001,0.281,4.721,0.1023,0.7008,0.1656,0.027,-0.012,-0.012
1670268801.759974,-9.236,0.249,4.734,0.0955,0.7003,0.1673,0.009000000000000001,-0.016,-0.008
1670268801.799974,-9.223,0.28300000000000003,4.756,0.10060000000000001,0.7015,0.16570000000000001,0.0,-0.009000000000000001,0.0
1670268801.839973,-9.235,0.299,4.803,0.10060000000000001,0.7029000000000001,0.1646,-0.002,-0.006,-0.002
1670268801.879973,-9.262,0.301,4.752,0.1033,0.7028,0.1642,0.021,-0.008,-0.008
1670268801.919973,-9.251,0.28,4.779,0.09910000000000001,0.7012,0.16540000000000002,0.02,-0.01,-0.001
1670268801.9599729,-9.279,0.223,4.7620000000000005,0.0995,0.6994,0.16870000000000002,0.015,-0.017,-0.008
1670268801.999973,-9.203,0.281,4.807,0.1008,0.7037,0.16490000000000002,0.009000000000000001,-0.024,-0.003
1670268802.039973,-9.266,0.362,4.783,0.0993,0.7013,0.1645,0.018000000000000002,-0.022,0.011
1670268802.079973,-9.254,0.23700000000000002,4.761,0.1013,0.7006,0.1652,0.034,-0.009000000000000001,-0.005
1670268802.119973,-9.187,0.326,4.767,0.0995,0.6998000000000001,0.16340000000000002,0.029,-0.008,-0.006
1670268802.159973,-9.277000000000001,0.269,4.7,0.1028,0.7003,0.1637,0.014,-0.01,0.004
1670268802.1999729,-9.251,0.308,4.755,0.1004,0.7010000000000001,0.1632,0.008,-0.011,0.0
1670268802.239973,-9.267,0.331,4.757,0.1033,0.7036,0.16290000000000002,0.023,-0.013000000000000001,-0.005
1670268802.279973,-9.223,0.223,4.767,0.10020000000000001,0.6998000000000001,0.1685,0.016,-0.021,-0.006
1670268802.319973,-9.245000000000001,0.326,4.7330000000000005,0.1015,0.7018,0.1646,0.014,-0.021,-0.001
1670268802.359973,-9.292,0.28,4.745,0.10060000000000001,0.7027,0.1646,0.025,-0.011,-0.006
1670268802.399973,-9.25,0.28600000000000003,4.72,0.0985,0.7029000000000001,0.1663,0.03,-0.004,0.002
1670268802.4399729,-9.223,0.266,4.737,0.1012,0.7008,0.1643,0.011,-0.001,0.009000000000000001
1670268802.479973,-9.249,0.311,4.773,0.10400000000000001,0.7012,0.1656,0.023,-0.006,0.006
1670268802.519973,-9.218,0.31,4.789,0.1012,0.7012,0.1628,0.031,-0.011,-0.008
1670268802.559973,-9.229000000000001,0.275,4.8,0.1019,0.7017,0.16540000000000002,0.015,-0.019,-0.008
1670268802.599973,-9.229000000000001,0.292,4.771,0.1004,0.7015,0.16820000000000002,0.011,-0.017,0.001
1670268802.639973,-9.226,0.312,4.765,0.1013,0.7026,0.1675,0.014,-0.014,0.006
1670268802.679973,-9.232,0.313,4.734,0.0999,0.7008,0.1635,0.022,-0.011,-0.001
1670268802.719973,-9.25,0.296,4.793,0.1017,0.6989000000000001,0.164,0.028,-0.008,-0.003
1670268802.759973,-9.236,0.299,4.766,0.1008,0.7012,0.16670000000000001,0.022,-0.011,-0.001
1670268802.799973,-9.19,0.28400000000000003,4.748,0.09920000000000001,0.6997,0.16570000000000001,0.019,-0.02,0.0
1670268802.839973,-9.25,0.28400000000000003,4.713,0.0993,0.7015,0.1652,0.031,-0.019,0.011
1670268802.879972,-9.289,0.359,4.816,0.10010000000000001,0.7024,0.1646,0.032,-0.005,0.0
1670268802.919972,-9.19,0.299,4.719,0.099,0.6983,0.1658,0.032,-0.007,-0.005
1670268802.959972,-9.247,0.281,4.747,0.10110000000000001,0.7002,0.16540000000000002,0.012,-0.007,0.004
1670268802.9999719,-9.247,0.32,4.728,0.0887,0.6979000000000001,0.1729,0.008,-0.006,0.008
1670268803.039972,-9.26,0.362,4.774,0.10260000000000001,0.7009000000000001,0.1675,0.019,-0.005,-0.006
1670268803.079972,-9.212,0.28600000000000003,4.807,0.09970000000000001,0.6986,0.1642,0.022,-0.018000000000000002,-0.014
1670268803.119972,-9.223,0.35100000000000003,4.784,0.0993,0.6999000000000001,0.1637,0.02,-0.017,-0.001
1670268803.159972,-9.273,0.245,4.753,0.1008,0.6998000000000001,0.1643,0.014,-0.009000000000000001,0.007
1670268803.199972,-9.246,0.354,4.737,0.10070000000000001,0.7007,0.1645,0.018000000000000002,-0.003,0.0
1670268803.2399719,-9.223,0.317,4.822,0.0993,0.6969000000000001,0.1685,0.022,-0.014,0.004
1670268803.279972,-9.245000000000001,0.342,4.7540000000000004,0.1,0.7018,0.1658,0.022,-0.011,0.005
1670268803.319972,-9.275,0.34500000000000003,4.688,0.0927,0.6996,0.1721,0.025,-0.018000000000000002,-0.009000000000000001
1670268803.359972,-9.274000000000001,0.317,4.74,0.1037,0.6977,0.1647,0.019,-0.018000000000000002,-0.008
1670268803.399972,-9.248,0.307,4.743,0.09770000000000001,0.6966,0.1693,0.005,-0.016,0.0
1670268803.439972,-9.235,0.342,4.7540000000000004,0.1005,0.6978000000000001,0.1746,0.006,-0.015,-0.001
1670268803.479972,-9.239,0.335,4.793,0.1034,0.7029000000000001,0.16570000000000001,0.025,-0.018000000000000002,-0.009000000000000001
1670268803.519972,-9.257,0.34800000000000003,4.777,0.10060000000000001,0.6978000000000001,0.17120000000000002,0.028,-0.018000000000000002,-0.006
1670268803.559972,-9.23,0.323,4.721,0.10250000000000001,0.6990000000000001,0.1658,0.022,-0.014,-0.007
1670268803.599972,-9.207,0.22,4.79,0.0984,0.7014,0.1701,-0.004,0.006,0.015
1670268803.639972,-9.262,0.363,4.819,0.10070000000000001,0.7007,0.1658,-0.01,-0.003,0.025
1670268803.679972,-9.285,0.47200000000000003,4.776,0.10020000000000001,0.6988000000000001,0.1661,0.031,-0.016,0.001
1670268803.719972,-9.203,0.296,4.715,0.1008,0.7016,0.1641,0.058,-0.017,-0.021
1670268803.759972,-9.209,0.295,4.651,0.1014,0.6993,0.1648,0.03,-0.015,-0.015
1670268803.799972,-9.264,0.319,4.742,0.0964,0.6988000000000001,0.167,0.007,-0.023,0.005
1670268803.839972,-9.286,0.372,4.752,0.099,0.6988000000000001,0.16840000000000002,0.006,-0.016,0.0
1670268803.879972,-9.241,0.356,4.829,0.0998,0.6981,0.1647,0.023,-0.016,-0.022
1670268803.919971,-9.175,0.292,4.801,0.1004,0.7003,0.1666,0.02,-0.022,-0.012
1670268803.959971,-9.283,0.28600000000000003,4.729,0.1029,0.6988000000000001,0.1658,0.02,-0.016,-0.004
1670268803.999971,-9.25,0.35000000000000003,4.746,0.0978,0.7009000000000001,0.16590000000000002,0.021,-0.015,-0.006
1670268804.0399709,-9.215,0.316,4.734,0.10310000000000001,0.6998000000000001,0.1663,0.03,-0.007,-0.003
1670268804.079971,-9.231,0.341,4.761,0.10010000000000001,0.6997,0.1671,0.019,-0.009000000000000001,-0.001
1670268804.119971,-9.236,0.354,4.744,0.1022,0.6985,0.1652,0.015,-0.011,-0.006
1670268804.159971,-9.241,0.31,4.757,0.10310000000000001,0.7035,0.1671,0.016,-0.012,-0.006
1670268804.199971,-9.253,0.289,4.739,0.1009,0.7008,0.1673,0.003,-0.009000000000000001,-0.009000000000000001
1670268804.239971,-9.248,0.305,4.807,0.1,0.7000000000000001,0.16490000000000002,-0.005,-0.012,-0.001
1670268804.279971,-9.247,0.32,4.773,0.10310000000000001,0.7010000000000001,0.1647,0.004,-0.017,-0.003
1670268804.319971,-9.239,0.319,4.757,0.0995,0.7016,0.1683,0.013000000000000001,-0.014,-0.007
1670268804.359971,-9.223,0.311,4.749,0.1023,0.7012,0.1647,0.018000000000000002,-0.013000000000000001,-0.005
1670268804.399971,-9.221,0.299,4.813,0.10250000000000001,0.7023,0.1646,0.01,-0.016,0.003
1670268804.439971,-9.228,0.311,4.757,0.10020000000000001,0.6996,0.1652,0.014,-0.017,-0.002
1670268804.479971,-9.203,0.338,4.792,0.09870000000000001,0.7011000000000001,0.16840000000000002,0.014,-0.018000000000000002,-0.008
1670268804.519971,-9.223,0.318,4.756,0.10060000000000001,0.7016,0.1658,0.01,-0.017,-0.004
1670268804.559971,-9.282,0.314,4.791,0.10210000000000001,0.7007,0.1651,0.014,-0.016,0.008
1670268804.599971,-9.282,0.338,4.771,0.0998,0.7019000000000001,0.1647,0.023,-0.003,0.0
1670268804.639971,-9.175,0.332,4.716,0.1039,0.6985,0.16620000000000001,0.016,-0.006,-0.006
1670268804.679971,-9.19,0.298,4.711,0.10250000000000001,0.7010000000000001,0.16590000000000002,0.01,-0.008,0.008
1670268804.719971,-9.249,0.321,4.753,0.1019,0.7011000000000001,0.1665,0.018000000000000002,-0.016,-0.004
1670268804.759971,-9.255,0.335,4.722,0.0951,0.6967,0.1772,0.013000000000000001,-0.013000000000000001,-0.013000000000000001
1670268804.799971,-9.22,0.227,4.788,0.09910000000000001,0.6989000000000001,0.1635,0.003,-0.018000000000000002,-0.012
1670268804.839971,-9.226,0.381,4.845,0.0965,0.7021000000000001,0.1668,0.01,-0.018000000000000002,-0.005
1670268804.879971,-9.256,0.253,4.767,0.1012,0.6991,0.168,0.019,-0.003,-0.009000000000000001
1670268804.919971,-9.262,0.319,4.6850000000000005,0.10070000000000001,0.6982,0.1668,0.016,-0.005,-0.003
1670268804.95997,-9.193,0.278,4.789,0.1008,0.7032,0.1647,0.011,-0.004,0.0
1670268804.99997,-9.24,0.334,4.78,0.0995,0.7008,0.1638,0.02,-0.008,-0.006
1670268805.03997,-9.234,0.302,4.748,0.1012,0.7023,0.16440000000000002,0.015,-0.012,-0.003
1670268805.07997,-9.255,0.252,4.741,0.0881,0.6974,0.1693,0.008,-0.019,-0.001
1670268805.11997,-9.255,0.277,4.767,0.0993,0.7006,0.1652,0.001,-0.019,-0.007
1670268805.15997,-9.26,0.292,4.73,0.10010000000000001,0.7019000000000001,0.15480000000000002,0.014,-0.01,-0.001
1670268805.19997,-9.244,0.307,4.723,0.0988,0.7018,0.1438,0.02,-0.016,0.0
1670268805.23997,-9.234,0.293,4.759,0.09960000000000001,0.7026,0.1663,0.036000000000000004,-0.014,-0.008
1670268805.27997,-9.226,0.269,4.766,0.0954,0.6986,0.1526,0.032,-0.013000000000000001,-0.003
1670268805.31997,-9.224,0.271,4.788,0.099,0.7005,0.1558,0.017,-0.018000000000000002,-0.003
1670268805.35997,-9.274000000000001,0.264,4.798,0.1017,0.7026,0.16590000000000002,0.014,-0.015,-0.001
1670268805.39997,-9.290000000000001,0.398,4.748,0.1014,0.7010000000000001,0.16640000000000002,0.012,-0.011,0.014
1670268805.43997,-9.219,0.256,4.758,0.09870000000000001,0.7011000000000001,0.1648,0.028,-0.005,-0.01
1670268805.47997,-9.195,0.28700000000000003,4.7090000000000005,0.1005,0.7016,0.166,0.026000000000000002,-0.005,-0.007
1670268805.51997,-9.263,0.304,4.749,0.1005,0.6983,0.16690000000000002,0.009000000000000001,-0.012,0.002
1670268805.55997,-9.23,0.306,4.798,0.1014,0.6995,0.1668,0.008,-0.01,-0.006
1670268805.59997,-9.223,0.273,4.833,0.1017,0.7005,0.1638,0.018000000000000002,-0.014,-0.012
1670268805.63997,-9.205,0.277,4.772,0.10250000000000001,0.6975,0.1642,0.0,-0.026000000000000002,-0.003
1670268805.67997,-9.279,0.242,4.7330000000000005,0.1012,0.6998000000000001,0.1676,0.016,-0.012,-0.002
1670268805.71997,-9.264,0.313,4.783,0.1,0.7002,0.16490000000000002,0.021,-0.007,-0.009000000000000001
1670268805.75997,-9.232,0.278,4.765,0.10160000000000001,0.7022,0.1666,0.017,-0.002,0.006
1670268805.79997,-9.224,0.325,4.737,0.1017,0.7033,0.165,0.016,-0.007,0.007
1670268805.83997,-9.23,0.334,4.763,0.1003,0.7018,0.1618,0.032,-0.016,-0.008
1670268805.87997,-9.224,0.275,4.764,0.0999,0.7003,0.1666,0.021,-0.015,-0.016
1670268805.91997,-9.255,0.281,4.74,0.0983,0.6994,0.16770000000000002,0.012,-0.016,0.001
1670268805.95997,-9.264,0.29,4.747,0.10060000000000001,0.7014,0.16740000000000002,-0.001,-0.015,0.002
1670268805.999969,-9.25,0.319,4.7700000000000005,0.1044,0.7009000000000001,0.1642,-0.003,-0.012,-0.004
1670268806.039969,-9.243,0.302,4.764,0.10010000000000001,0.7013,0.1643,0.017,-0.007,-0.007
1670268806.079969,-9.282,0.28700000000000003,4.8100000000000005,0.0993,0.6997,0.1637,0.016,-0.008,-0.005
1670268806.119969,-9.255,0.278,4.758,0.1012,0.7014,0.1658,0.017,-0.009000000000000001,-0.001
1670268806.159969,-9.247,0.252,4.798,0.1004,0.7025,0.1641,0.011,-0.013000000000000001,-0.007
1670268806.199969,-9.206,0.297,4.723,0.1023,0.7012,0.16670000000000001,0.012,-0.023,-0.002
1670268806.239969,-9.288,0.322,4.758,0.1,0.6987,0.1655,0.019,-0.018000000000000002,0.009000000000000001
1670268806.279969,-9.294,0.249,4.76,0.10110000000000001,0.6998000000000001,0.1652,0.026000000000000002,-0.002,-0.009000000000000001
1670268806.319969,-9.178,0.332,4.769,0.1015,0.7046,0.16690000000000002,0.027,-0.006,-0.007
1670268806.359969,-9.224,0.255,4.718,0.1,0.7001000000000001,0.1647,0.009000000000000001,-0.013000000000000001,0.0
1670268806.399969,-9.272,0.293,4.736,0.09970000000000001,0.6984,0.1652,0.017,-0.015,-0.004
1670268806.439969,-9.272,0.359,4.788,0.1034,0.7041000000000001,0.16840000000000002,0.047,0.003,-0.011
1670268806.479969,-9.241,0.181,4.743,0.1013,0.6990000000000001,0.1673,0.016,-0.021,-0.015
1670268806.519969,-9.234,0.34800000000000003,4.757,0.0981,0.7023,0.16440000000000002,-0.004,-0.031,0.0
1670268806.559969,-9.241,0.20500000000000002,4.764,0.1046,0.7007,0.1626,-0.004,-0.017,0.007
1670268806.599969,-9.233,0.311,4.747,0.10250000000000001,0.6997,0.165,0.011,-0.015,0.001
1670268806.639969,-9.208,0.28600000000000003,4.718,0.10110000000000001,0.7010000000000001,0.1666,0.027,-0.012,0.006
1670268806.679969,-9.249,0.307,4.764,0.1024,0.6983,0.16720000000000002,0.028,-0.021,0.001
1670268806.719969,-9.253,0.278,4.756,0.1023,0.7013,0.1627,0.022,-0.02,0.004
1670268806.759969,-9.286,0.263,4.735,0.1014,0.6978000000000001,0.1655,0.018000000000000002,-0.016,0.001
1670268806.799969,-9.27,0.308,4.719,0.10110000000000001,0.7008,0.16770000000000002,0.015,-0.016,0.0
1670268806.839969,-9.25,0.292,4.752,0.0951,0.6997,0.1751,0.011,-0.012,0.001
1670268806.879969,-9.284,0.33,4.703,0.1,0.6993,0.1638,0.021,-0.009000000000000001,0.0
1670268806.9199688,-9.264,0.319,4.777,0.1009,0.7000000000000001,0.16720000000000002,0.021,-0.003,0.003
1670268806.959969,-9.222,0.322,4.752,0.1,0.7025,0.1642,0.019,-0.016,0.004
1670268806.999969,-9.267,0.321,4.782,0.1008,0.6993,0.16870000000000002,0.015,-0.014,-0.002
1670268807.039968,-9.249,0.324,4.737,0.1,0.6994,0.1762,0.018000000000000002,-0.017,-0.003
1670268807.079968,-9.197000000000001,0.277,4.747,0.0862,0.6986,0.15960000000000002,0.002,-0.017,0.002
1670268807.119968,-9.278,0.437,4.836,0.09390000000000001,0.7006,0.1681,0.021,-0.016,0.005
1670268807.159968,-9.204,0.23900000000000002,4.7090000000000005,0.10200000000000001,0.6980000000000001,0.1676,0.032,-0.003,-0.004
1670268807.199968,-9.203,0.3,4.7780000000000005,0.10300000000000001,0.7010000000000001,0.16740000000000002,0.012,-0.012,-0.004
1670268807.239968,-9.261000000000001,0.319,4.761,0.1004,0.7016,0.16570000000000001,0.007,-0.016,0.003
1670268807.279968,-9.245000000000001,0.358,4.8340000000000005,0.1019,0.7008,0.1645,0.013000000000000001,-0.02,-0.001
1670268807.319968,-9.238,0.322,4.78,0.1023,0.7031000000000001,0.1655,0.023,-0.023,-0.003
1670268807.359968,-9.231,0.311,4.816,0.1004,0.6993,0.16290000000000002,0.019,-0.022,-0.015
1670268807.399968,-9.25,0.296,4.747,0.1005,0.7007,0.1666,0.018000000000000002,-0.021,-0.002
1670268807.439968,-9.222,0.34500000000000003,4.777,0.1034,0.6996,0.1661,0.013000000000000001,0.0,-0.001
1670268807.479968,-9.224,0.341,4.727,0.1005,0.7003,0.16540000000000002,0.015,-0.002,0.003
1670268807.519968,-9.233,0.319,4.7250000000000005,0.10160000000000001,0.6996,0.16570000000000001,0.007,-0.004,0.004
1670268807.559968,-9.202,0.324,4.773,0.1013,0.6999000000000001,0.1688,0.009000000000000001,-0.009000000000000001,-0.004
1670268807.599968,-9.275,0.313,4.7860000000000005,0.1024,0.6972,0.16740000000000002,0.017,-0.012,-0.005
1670268807.639968,-9.251,0.269,4.678,0.10160000000000001,0.7010000000000001,0.1655,0.005,-0.01,-0.011
1670268807.679968,-9.258000000000001,0.312,4.698,0.1022,0.7006,0.16790000000000002,-0.001,-0.012,0.0
1670268807.719968,-9.269,0.319,4.734,0.1013,0.6986,0.16690000000000002,-0.002,-0.011,-0.003
1670268807.759968,-9.263,0.326,4.795,0.1004,0.7009000000000001,0.165,0.01,-0.009000000000000001,-0.007
1670268807.799968,-9.263,0.319,4.745,0.1037,0.7043,0.1658,0.024,-0.015,-0.008
1670268807.839968,-9.266,0.28200000000000003,4.766,0.1,0.7041000000000001,0.16590000000000002,0.02,-0.014,0.002
1670268807.879968,-9.225,0.274,4.7540000000000004,0.10210000000000001,0.7011000000000001,0.1651,0.021,-0.015,-0.004
1670268807.919968,-9.249,0.254,4.817,0.1027,0.7033,0.16540000000000002,0.012,-0.019,-0.004
1670268807.9599679,-9.253,0.317,4.7940000000000005,0.10060000000000001,0.7003,0.1638,0.016,-0.021,-0.003
1670268807.999968,-9.296,0.39,4.757,0.1028,0.7008,0.1656,0.024,-0.013000000000000001,0.0
1670268808.039968,-9.251,0.23700000000000002,4.722,0.1017,0.6999000000000001,0.16590000000000002,0.033,-0.012,-0.011
1670268808.079967,-9.188,0.314,4.726,0.1019,0.7023,0.164,0.016,-0.018000000000000002,-0.013000000000000001
1670268808.119967,-9.263,0.297,4.742,0.0989,0.7007,0.16540000000000002,0.005,-0.019,0.007
1670268808.159967,-9.231,0.319,4.779,0.1003,0.7013,0.1638,0.015,-0.017,-0.009000000000000001
1670268808.199967,-9.27,0.342,4.806,0.1023,0.7019000000000001,0.1637,0.023,-0.02,-0.022
1670268808.239967,-9.263,0.231,4.809,0.1027,0.6985,0.1656,0.008,-0.029,-0.012
1670268808.279967,-9.249,0.341,4.755,0.10250000000000001,0.7012,0.1663,0.017,-0.018000000000000002,-0.003
1670268808.319967,-9.266,0.263,4.791,0.10160000000000001,0.6999000000000001,0.16620000000000001,0.013000000000000001,-0.009000000000000001,-0.005
1670268808.359967,-9.21,0.303,4.747,0.1017,0.7033,0.1666,0.023,-0.003,0.0
1670268808.399967,-9.229000000000001,0.296,4.7860000000000005,0.0994,0.6985,0.1642,0.016,-0.001,0.009000000000000001
1670268808.439967,-9.22,0.314,4.797,0.1005,0.7010000000000001,0.1675,0.024,-0.006,-0.002
1670268808.479967,-9.238,0.296,4.721,0.0983,0.6996,0.16840000000000002,0.02,-0.011,-0.002
1670268808.519967,-9.242,0.26,4.756,0.0993,0.7004,0.1663,0.006,-0.01,-0.007
1670268808.559967,-9.264,0.293,4.772,0.10060000000000001,0.7022,0.16540000000000002,0.005,-0.013000000000000001,-0.001
1670268808.599967,-9.202,0.281,4.783,0.1,0.7003,0.16620000000000001,0.005,-0.012,-0.004
1670268808.639967,-9.255,0.298,4.7250000000000005,0.1013,0.7016,0.16440000000000002,0.02,-0.018000000000000002,-0.007
1670268808.679967,-9.245000000000001,0.293,4.771,0.10200000000000001,0.7028,0.16440000000000002,0.025,-0.019,-0.004
1670268808.719967,-9.209,0.29,4.792,0.0999,0.6982,0.16440000000000002,0.021,-0.019,-0.006
1670268808.7599669,-9.23,0.265,4.735,0.09970000000000001,0.7003,0.1668,0.025,-0.022,-0.007
1670268808.799967,-9.203,0.23600000000000002,4.779,0.10260000000000001,0.7003,0.16570000000000001,0.016,-0.019,-0.005
1670268808.839967,-9.254,0.253,4.808,0.0944,0.6952,0.1661,0.019,-0.014,0.014
1670268808.879967,-9.301,0.356,4.776,0.1003,0.7022,0.16690000000000002,0.025,-0.005,-0.003
1670268808.919967,-9.204,0.253,4.8020000000000005,0.1017,0.6996,0.1705,0.018000000000000002,-0.005,-0.009000000000000001
1670268808.959967,-9.202,0.317,4.7620000000000005,0.1015,0.6978000000000001,0.18000000000000002,0.014,-0.004,0.005
1670268808.9999669,-9.224,0.27,4.758,0.09910000000000001,0.7007,0.1675,0.011,-0.01,0.001
1670268809.039967,-9.219,0.307,4.804,0.1018,0.6999000000000001,0.1643,0.017,-0.014,-0.012
1670268809.079967,-9.189,0.276,4.8,0.1012,0.7003,0.1673,0.009000000000000001,-0.023,-0.014
1670268809.119967,-9.255,0.274,4.7620000000000005,0.1012,0.7018,0.1648,0.013000000000000001,-0.016,-0.004
1670268809.159967,-9.251,0.314,4.749,0.09860000000000001,0.7025,0.16570000000000001,0.015,-0.008,0.0
1670268809.199966,-9.235,0.266,4.806,0.097,0.7006,0.1708,0.021,0.003,0.003
1670268809.239966,-9.251,0.277,4.766,0.1039,0.7018,0.1668,0.02,0.003,0.009000000000000001
1670268809.279966,-9.203,0.281,4.729,0.1012,0.7010000000000001,0.16770000000000002,-0.007,0.014,0.026000000000000002
1670268809.319966,-9.232,0.291,4.793,0.1033,0.7036,0.16770000000000002,0.004,-0.002,0.006
1670268809.359966,-9.247,0.28400000000000003,4.749,0.0974,0.7014,0.16490000000000002,0.039,-0.034,-0.024
1670268809.399966,-9.272,0.302,4.7090000000000005,0.101,0.6999000000000001,0.1641,0.046,-0.044,-0.023
1670268809.439966,-9.206,0.247,4.771,0.10210000000000001,0.7019000000000001,0.16620000000000001,0.029,-0.031,-0.008
1670268809.479966,-9.224,0.317,4.767,0.0995,0.7003,0.168,0.028,-0.028,0.0
1670268809.519966,-9.254,0.308,4.764,0.1009,0.7019000000000001,0.16640000000000002,0.031,-0.021,0.001
1670268809.5599658,-9.206,0.302,4.749,0.1018,0.7014,0.1651,0.032,-0.017,-0.006
1670268809.599966,-9.235,0.281,4.807,0.1014,0.6996,0.16540000000000002,0.027,-0.021,-0.012
1670268809.639966,-9.201,0.34800000000000003,4.822,0.1012,0.6996,0.1666,0.015,-0.031,-0.009000000000000001
1670268809.679966,-9.295,0.332,4.78,0.10060000000000001,0.7016,0.1668,0.003,-0.02,0.005
1670268809.719966,-9.276,0.307,4.787,0.1009,0.7000000000000001,0.16540000000000002,0.026000000000000002,-0.001,-0.007
1670268809.759966,-9.188,0.326,4.766,0.0993,0.6996,0.1673,0.009000000000000001,0.0,-0.007
1670268809.7999659,-9.200000000000001,0.256,4.773,0.1003,0.7008,0.1685,-0.002,-0.001,0.001
1670268809.839966,-9.256,0.329,4.792,0.09970000000000001,0.7011000000000001,0.166,0.005,0.0,-0.003
1670268809.879966,-9.251,0.294,4.816,0.10310000000000001,0.7033,0.1685,0.017,-0.002,-0.014
1670268809.919966,-9.236,0.202,4.743,0.1012,0.7009000000000001,0.1671,0.007,-0.015,-0.019
1670268809.959966,-9.252,0.341,4.7780000000000005,0.1005,0.7024,0.1655,0.008,-0.016,0.0
1670268809.999966,-9.259,0.202,4.7010000000000005,0.1009,0.7020000000000001,0.16490000000000002,0.014,-0.012,-0.003
1670268810.0399659,-9.246,0.295,4.732,0.10110000000000001,0.7022,0.16540000000000002,0.019,-0.003,-0.001
1670268810.079966,-9.226,0.26,4.746,0.0993,0.7018,0.16870000000000002,0.025,-0.008,0.013000000000000001
1670268810.119966,-9.239,0.317,4.771,0.1019,0.6996,0.1652,0.031,-0.008,0.012
1670268810.159966,-9.207,0.323,4.821,0.1032,0.6985,0.1656,0.033,-0.018000000000000002,0.005
1670268810.199966,-9.239,0.29,4.809,0.1003,0.7027,0.1666,0.032,-0.015,-0.009000000000000001
1670268810.239965,-9.231,0.277,4.8020000000000005,0.1029,0.6988000000000001,0.16620000000000001,0.023,-0.016,-0.004
1670268810.279965,-9.221,0.265,4.771,0.1015,0.6979000000000001,0.1676,0.022,-0.014,0.002
1670268810.319965,-9.223,0.317,4.8020000000000005,0.1017,0.7022,0.1665,0.022,-0.011,0.005
1670268810.3599648,-9.242,0.34400000000000003,4.799,0.0883,0.6999000000000001,0.16740000000000002,0.03,-0.014,0.001
1670268810.399965,-9.225,0.32,4.801,0.1,0.7014,0.1661,0.032,-0.011,-0.003
1670268810.439965,-9.25,0.295,4.7250000000000005,0.09970000000000001,0.7018,0.1656,0.018000000000000002,-0.012,-0.001
1670268810.479965,-9.217,0.337,4.777,0.1041,0.6995,0.1668,0.022,-0.026000000000000002,-0.002
1670268810.519965,-9.23,0.337,4.809,0.10210000000000001,0.7007,0.1668,0.029,-0.008,-0.001
1670268810.559965,-9.264,0.328,4.761,0.10060000000000001,0.6995,0.16490000000000002,0.031,-0.004,-0.002
1670268810.5999649,-9.177,0.32,4.713,0.09820000000000001,0.6989000000000001,0.1763,0.014,-0.005,-0.004
1670268810.639965,-9.215,0.278,4.7250000000000005,0.1018,0.6997,0.1696,0.007,-0.014,0.009000000000000001
1670268810.679965,-9.255,0.34400000000000003,4.7700000000000005,0.1038,0.7007,0.16690000000000002,0.006,-0.016,-0.001
1670268810.719965,-9.266,0.381,4.7940000000000005,0.1012,0.6989000000000001,0.16490000000000002,0.025,-0.015,-0.01
1670268810.759965,-9.219,0.271,4.816,0.1003,0.6999000000000001,0.16920000000000002,0.014,-0.022,-0.016
1670268810.799965,-9.198,0.371,4.723,0.0993,0.6990000000000001,0.1744,0.014,-0.018000000000000002,-0.006
1670268810.8399649,-9.277000000000001,0.337,4.768,0.0868,0.6999000000000001,0.169,0.018000000000000002,-0.013000000000000001,-0.003
1670268810.879965,-9.235,0.319,4.757,0.0964,0.6960000000000001,0.16570000000000001,0.023,-0.001,0.004
1670268810.919965,-9.245000000000001,0.34800000000000003,4.723,0.1039,0.7001000000000001,0.1652,0.016,0.0,0.011
1670268810.959965,-9.264,0.343,4.715,0.1008,0.6976,0.16820000000000002,0.022,-0.012,0.0
1670268810.999965,-9.221,0.305,4.747,0.099,0.6963,0.1647,0.026000000000000002,-0.01,-0.009000000000000001
1670268811.039965,-9.24,0.292,4.764,0.1004,0.6996,0.16870000000000002,0.014,-0.01,-0.008
1670268811.0799649,-9.238,0.308,4.745,0.1009,0.7000000000000001,0.16740000000000002,0.008,-0.016,-0.009000000000000001
1670268811.119965,-9.236,0.354,4.756,0.1012,0.7013,0.16570000000000001,0.007,-0.014,-0.007
1670268811.159965,-9.241,0.334,4.768,0.0981,0.7003,0.166,0.013000000000000001,-0.015,-0.006
1670268811.199965,-9.248,0.301,4.75,0.1019,0.7007,0.16440000000000002,0.023,-0.012,-0.009000000000000001
1670268811.239965,-9.25,0.302,4.731,0.10160000000000001,0.7018,0.16690000000000002,0.024,-0.013000000000000001,-0.006
1670268811.279964,-9.182,0.312,4.796,0.10020000000000001,0.7002,0.16390000000000002,0.008,-0.016,-0.003
1670268811.319964,-9.235,0.256,4.73,0.09970000000000001,0.7000000000000001,0.1648,0.0,-0.016,0.001
1670268811.359964,-9.306000000000001,0.39,4.736,0.1033,0.7021000000000001,0.1646,0.025,-0.009000000000000001,-0.003
1670268811.3999639,-9.225,0.29,4.774,0.0978,0.7013,0.1671,0.034,-0.011,-0.011
1670268811.439964,-9.215,0.292,4.739,0.09860000000000001,0.7000000000000001,0.1637,0.011,-0.007,-0.002
1670268811.479964,-9.285,0.306,4.688,0.1009,0.7012,0.16540000000000002,0.0,-0.016,0.006
1670268811.519964,-9.252,0.34700000000000003,4.799,0.1028,0.7007,0.16540000000000002,0.01,-0.009000000000000001,-0.006
1670268811.559964,-9.214,0.279,4.785,0.1015,0.7008,0.1655,0.012,-0.018000000000000002,-0.025
1670268811.599964,-9.182,0.304,4.749,0.1009,0.6991,0.1646,0.014,-0.027,-0.008
1670268811.6399639,-9.299,0.265,4.779,0.09970000000000001,0.7050000000000001,0.166,0.011,-0.018000000000000002,0.002
1670268811.679964,-9.253,0.313,4.745,0.0975,0.7027,0.16790000000000002,0.022,-0.007,-0.005
1670268811.719964,-9.257,0.302,4.745,0.10250000000000001,0.6982,0.16870000000000002,0.021,0.001,0.006
1670268811.759964,-9.278,0.322,4.7540000000000004,0.1004,0.7055,0.16540000000000002,0.016,-0.003,0.005
1670268811.799964,-9.23,0.329,4.7860000000000005,0.10310000000000001,0.7022,0.16570000000000001,0.018000000000000002,-0.008,-0.003
1670268811.839964,-9.229000000000001,0.3,4.774,0.10020000000000001,0.7002,0.1646,0.012,-0.021,-0.004
1670268811.8799639,-9.241,0.27,4.759,0.1,0.6999000000000001,0.1655,0.007,-0.014,-0.004
1670268811.919964,-9.243,0.292,4.743,0.101,0.7011000000000001,0.1665,0.001,-0.014,0.0
1670268811.959964,-9.266,0.323,4.738,0.1037,0.7003,0.1666,0.014,-0.014,0.0
1670268811.999964,-9.253,0.305,4.783,0.10060000000000001,0.6997,0.1642,0.011,-0.009000000000000001,-0.008
1670268812.039964,-9.245000000000001,0.295,4.739,0.10010000000000001,0.6993,0.1665,0.014,-0.008,-0.003
1670268812.079964,-9.221,0.281,4.764,0.1009,0.6993,0.16640000000000002,0.01,-0.013000000000000001,-0.004
1670268812.119964,-9.251,0.242,4.74,0.0989,0.7020000000000001,0.1652,0.009000000000000001,-0.017,-0.002
1670268812.159964,-9.266,0.326,4.837,0.09570000000000001,0.6994,0.164,0.041,-0.001,0.005
1670268812.199964,-9.274000000000001,0.317,4.763,0.0976,0.7025,0.1695,0.031,-0.016,-0.014
1670268812.239964,-9.192,0.23700000000000002,4.724,0.10310000000000001,0.7011000000000001,0.1663,0.011,-0.021,-0.003
1670268812.279964,-9.223,0.247,4.697,0.1008,0.7004,0.1646,-0.011,-0.02,0.017
1670268812.319963,-9.264,0.333,4.713,0.1014,0.7011000000000001,0.16490000000000002,0.003,-0.022,-0.001
1670268812.359963,-9.225,0.342,4.84,0.09730000000000001,0.6996,0.1668,0.03,-0.018000000000000002,-0.018000000000000002
1670268812.399963,-9.208,0.26,4.831,0.1014,0.7004,0.16540000000000002,0.018000000000000002,-0.03,-0.022
1670268812.4399629,-9.198,0.272,4.798,0.1003,0.7007,0.166,0.012,-0.027,0.001
1670268812.479963,-9.269,0.225,4.7540000000000004,0.10310000000000001,0.6994,0.16640000000000002,0.016,-0.018000000000000002,0.0
1670268812.519963,-9.221,0.32,4.793,0.1009,0.7011000000000001,0.16620000000000001,0.023,-0.008,0.0
1670268812.559963,-9.202,0.28,4.789,0.1014,0.7040000000000001,0.168,0.02,-0.006,0.004
1670268812.599963,-9.225,0.296,4.816,0.09280000000000001,0.6986,0.1626,0.021,-0.01,0.004
1670268812.639963,-9.225,0.316,4.798,0.10060000000000001,0.7005,0.15360000000000001,0.025,-0.012,0.002
1670268812.6799629,-9.228,0.28,4.7780000000000005,0.096,0.6988000000000001,0.17980000000000002,0.014,-0.014,0.0
1670268812.719963,-9.239,0.266,4.751,0.1017,0.7024,0.1834,0.003,-0.013000000000000001,0.0
1670268812.759963,-9.242,0.316,4.788,0.1004,0.6996,0.1563,0.012,-0.019,-0.001
1670268812.799963,-9.23,0.322,4.782,0.1003,0.6997,0.16670000000000001,0.021,-0.019,-0.009000000000000001
1670268812.839963,-9.244,0.296,4.797,0.1013,0.7003,0.1676,0.035,-0.016,-0.007
1670268812.879963,-9.236,0.247,4.772,0.09920000000000001,0.7005,0.166,0.026000000000000002,-0.022,-0.01
1670268812.919963,-9.169,0.301,4.78,0.099,0.7014,0.1683,0.02,-0.021,0.002
1670268812.959963,-9.269,0.307,4.74,0.1014,0.7002,0.1643,0.011,-0.018000000000000002,0.006
1670268812.999963,-9.245000000000001,0.3,4.784,0.0995,0.6982,0.1668,0.029,-0.008,-0.002
1670268813.039963,-9.197000000000001,0.327,4.765,0.0998,0.6995,0.1656,0.025,-0.006,-0.003
1670268813.079963,-9.241,0.276,4.764,0.0999,0.7033,0.16790000000000002,0.011,-0.01,-0.001
1670268813.119963,-9.229000000000001,0.305,4.764,0.10070000000000001,0.7000000000000001,0.16690000000000002,0.01,-0.011,0.0
1670268813.159963,-9.245000000000001,0.315,4.797,0.09870000000000001,0.7022,0.16920000000000002,0.016,-0.012,-0.005
1670268813.199963,-9.259,0.249,4.809,0.099,0.7002,0.1638,0.017,-0.018000000000000002,-0.011
1670268813.239963,-9.251,0.366,4.814,0.1003,0.7007,0.1663,0.023,-0.026000000000000002,-0.007
1670268813.279963,-9.274000000000001,0.225,4.782,0.09970000000000001,0.7013,0.1642,0.017,-0.011,0.003
1670268813.319963,-9.215,0.304,4.723,0.10350000000000001,0.7029000000000001,0.16640000000000002,0.022,-0.006,0.004
1670268813.359962,-9.223,0.289,4.7780000000000005,0.10060000000000001,0.6993,0.1665,0.021,0.0,0.008
1670268813.399962,-9.251,0.35100000000000003,4.784,0.1,0.7028,0.16620000000000001,0.02,-0.012,0.007
1670268813.439962,-9.216000000000001,0.324,4.812,0.1013,0.6959000000000001,0.1695,0.028,-0.015,-0.001
1670268813.4799619,-9.261000000000001,0.28700000000000003,4.758,0.10010000000000001,0.7002,0.1653,0.029,-0.014,-0.005
1670268813.519962,-9.245000000000001,0.298,4.758,0.09920000000000001,0.7016,0.1661,0.015,-0.016,0.0
1670268813.559962,-9.242,0.314,4.737,0.1017,0.6993,0.16840000000000002,0.008,-0.014,0.001
1670268813.599962,-9.251,0.326,4.746,0.10200000000000001,0.6991,0.1655,0.022,-0.014,-0.001
1670268813.639962,-9.215,0.32,4.8100000000000005,0.09970000000000001,0.6989000000000001,0.1656,0.022,-0.013000000000000001,-0.012
1670268813.679962,-9.247,0.324,4.745,0.0998,0.7016,0.16570000000000001,0.022,-0.007,-0.001
1670268813.719962,-9.19,0.281,4.795,0.0999,0.7006,0.1655,0.01,-0.019,0.006
1670268813.759962,-9.266,0.28300000000000003,4.7860000000000005,0.1,0.6982,0.1663,0.013000000000000001,-0.015,0.01
1670268813.799962,-9.328,0.435,4.7700000000000005,0.101,0.6989000000000001,0.16620000000000001,0.029,-0.009000000000000001,0.006
1670268813.839962,-9.19,0.28600000000000003,4.807,0.1015,0.7011000000000001,0.1648,0.034,-0.011,-0.008
1670268813.879962,-9.212,0.308,4.764,0.1009,0.7007,0.1635,0.012,-0.013000000000000001,0.007
1670268813.919962,-9.236,0.303,4.768,0.099,0.7015,0.167,0.007,-0.009000000000000001,0.007
1670268813.959962,-9.256,0.369,4.793,0.10070000000000001,0.7000000000000001,0.16620000000000001,0.016,-0.009000000000000001,-0.001
1670268813.999962,-9.23,0.329,4.812,0.10070000000000001,0.6994,0.16540000000000002,0.029,-0.017,-0.016
1670268814.039962,-9.216000000000001,0.319,4.7620000000000005,0.1008,0.7015,0.1652,0.029,-0.021,-0.011
1670268814.079962,-9.239,0.28,4.824,0.0978,0.6996,0.1646,0.021,-0.021,0.0
1670268814.119962,-9.223,0.334,4.787,0.0848,0.7016,0.16570000000000001,0.017,-0.009000000000000001,-0.003
1670268814.159962,-9.206,0.335,4.789,0.1009,0.7010000000000001,0.1668,0.019,-0.008,0.005
1670268814.199962,-9.225,0.329,4.724,0.0988,0.6958000000000001,0.1681,0.016,-0.007,0.009000000000000001
1670268814.239962,-9.25,0.363,4.799,0.10160000000000001,0.7010000000000001,0.1655,0.026000000000000002,-0.011,-0.002
1670268814.279962,-9.232,0.326,4.7940000000000005,0.1017,0.6985,0.1665,0.022,-0.014,-0.004
1670268814.319962,-9.247,0.311,4.752,0.1015,0.6982,0.16440000000000002,0.002,-0.018000000000000002,-0.005
1670268814.359962,-9.232,0.311,4.753,0.09820000000000001,0.6993,0.164,0.0,-0.018000000000000002,0.0
1670268814.399961,-9.228,0.342,4.797,0.09920000000000001,0.7009000000000001,0.1663,0.008,-0.014,-0.005
1670268814.439961,-9.226,0.342,4.78,0.09230000000000001,0.7002,0.1839,0.021,-0.014,-0.006
1670268814.479961,-9.265,0.332,4.759,0.0998,0.6978000000000001,0.1583,0.03,-0.011,0.0
1670268814.5199609,-9.273,0.298,4.781,0.09910000000000001,0.6991,0.1612,0.017,-0.011,-0.007
1670268814.559961,-9.243,0.334,4.845,0.0983,0.6997,0.17250000000000001,0.01,-0.021,-0.005
1670268814.599961,-9.271,0.442,4.824,0.10010000000000001,0.6986,0.1579,0.01,-0.024,0.006
1670268814.639961,-9.241,0.244,4.765,0.0956,0.6989000000000001,0.17220000000000002,0.03,-0.014,-0.007
1670268814.679961,-9.163,0.317,4.731,0.0984,0.6977,0.16670000000000001,0.025,-0.012,-0.011
1670268814.719961,-9.246,0.304,4.774,0.1008,0.6991,0.1655,0.009000000000000001,-0.017,0.004
1670268814.759961,-9.232,0.34800000000000003,4.795,0.0994,0.7024,0.1652,0.008,-0.008,0.005
1670268814.799961,-9.231,0.356,4.849,0.0999,0.6984,0.16640000000000002,0.023,-0.014,-0.01
1670268814.839961,-9.236,0.248,4.783,0.101,0.7005,0.16540000000000002,0.021,-0.02,-0.021
1670268814.799961,-9.224,0.335,4.823,0.09960000000000001,0.6997,0.16340000000000002,0.021,-0.026000000000000002,-0.002
1670268814.839961,-9.239,0.305,4.787,0.0931,0.6999000000000001,0.1663,0.011,-0.021,0.0
1670268814.879961,-9.243,0.308,4.744,0.0988,0.6986,0.1661,0.017,0.004,0.0
1670268814.919961,-9.219,0.281,4.731,0.1017,0.6996,0.1655,0.005,0.009000000000000001,0.025
1670268814.959961,-9.218,0.396,4.739,0.1015,0.6996,0.164,0.033,-0.01,0.008
1670268814.999961,-9.266,0.354,4.83,0.10250000000000001,0.6982,0.1656,0.045,-0.012,-0.015
1670268815.039961,-9.216000000000001,0.256,4.743,0.09910000000000001,0.6982,0.164,0.037,-0.025,-0.022
1670268815.079961,-9.281,0.307,4.719,0.1008,0.7000000000000001,0.1668,0.008,-0.026000000000000002,-0.007
1670268815.119961,-9.223,0.317,4.758,0.0998,0.6986,0.165,-0.009000000000000001,-0.023,0.002
1670268815.159961,-9.246,0.39,4.796,0.0989,0.6988000000000001,0.169,0.013000000000000001,-0.02,-0.01
1670268815.199961,-9.194,0.35000000000000003,4.849,0.10060000000000001,0.7002,0.1658,0.023,-0.013000000000000001,-0.014
1670268815.239961,-9.223,0.301,4.764,0.09970000000000001,0.6982,0.165,0.025,-0.018000000000000002,-0.006
1670268815.279961,-9.245000000000001,0.33,4.777,0.09620000000000001,0.6970000000000001,0.16840000000000002,0.012,-0.019,0.001
1670268815.319961,-9.214,0.301,4.825,0.1012,0.6998000000000001,0.1648,0.013000000000000001,-0.015,-0.004
1670268815.359961,-9.212,0.301,4.829,0.09910000000000001,0.6997,0.1646,0.014,-0.016,-0.01
1670268815.399961,-9.209,0.329,4.809,0.1008,0.7032,0.1665,0.01,-0.014,-0.004
1670268815.43996,-9.249,0.363,4.797,0.09730000000000001,0.6989000000000001,0.1652,0.01,-0.004,0.007
1670268815.47996,-9.232,0.26,4.719,0.1008,0.6983,0.1641,0.009000000000000001,-0.003,-0.001
1670268815.51996,-9.179,0.324,4.7540000000000004,0.10110000000000001,0.6980000000000001,0.1658,0.016,-0.009000000000000001,-0.01
1670268815.55996,-9.208,0.342,4.799,0.1,0.6993,0.16770000000000002,-0.001,-0.018000000000000002,0.002
1670268815.59996,-9.257,0.311,4.756,0.0993,0.7000000000000001,0.1685,0.003,-0.02,-0.006
1670268815.63996,-9.253,0.357,4.83,0.1018,0.7032,0.1683,0.015,-0.018000000000000002,-0.016
1670268815.67996,-9.221,0.229,4.7860000000000005,0.10250000000000001,0.7020000000000001,0.1647,0.004,-0.019,-0.001
1670268815.71996,-9.226,0.336,4.816,0.10020000000000001,0.7010000000000001,0.16490000000000002,0.014,-0.016,-0.001
1670268815.75996,-9.25,0.28600000000000003,4.774,0.0978,0.7010000000000001,0.1666,0.023,-0.006,0.0
1670268815.79996,-9.203,0.306,4.822,0.09670000000000001,0.7027,0.16590000000000002,0.021,-0.001,0.003
1670268815.83996,-9.211,0.28400000000000003,4.782,0.10200000000000001,0.7027,0.1665,0.017,-0.002,0.0
1670268815.87996,-9.194,0.324,4.835,0.0969,0.7011000000000001,0.16790000000000002,0.021,-0.012,0.004
1670268815.91996,-9.227,0.28300000000000003,4.771,0.10010000000000001,0.6999000000000001,0.165,0.02,-0.016,-0.008
1670268815.95996,-9.237,0.277,4.795,0.1003,0.6991,0.1632,0.009000000000000001,-0.015,-0.007
1670268815.99996,-9.225,0.301,4.812,0.0998,0.6994,0.1666,0.002,-0.012,-0.002
1670268816.03996,-9.226,0.325,4.795,0.0984,0.7021000000000001,0.166,0.012,-0.011,-0.004
1670268816.07996,-9.275,0.317,4.767,0.1019,0.6997,0.1652,0.028,-0.012,-0.009000000000000001
1670268816.11996,-9.196,0.302,4.783,0.0961,0.6985,0.17420000000000002,0.037,-0.017,-0.01
1670268816.15996,-9.198,0.247,4.757,0.09870000000000001,0.7018,0.1658,0.023,-0.023,-0.005
1670268816.19996,-9.211,0.28600000000000003,4.795,0.1004,0.7008,0.1661,0.013000000000000001,-0.022,-0.002
1670268816.23996,-9.179,0.328,4.828,0.099,0.7018,0.16090000000000002,0.016,-0.025,0.001
1670268816.27996,-9.248,0.261,4.827,0.09820000000000001,0.6996,0.1593,0.022,-0.013000000000000001,-0.002
1670268816.31996,-9.197000000000001,0.28400000000000003,4.711,0.0862,0.6947,0.1521,0.021,-0.006,-0.005
1670268816.35996,-9.183,0.269,4.776,0.09380000000000001,0.7001000000000001,0.164,0.012,-0.007,-0.003
1670268816.39996,-9.235,0.335,4.758,0.1,0.7016,0.1656,0.007,-0.021,0.0
1670268816.43996,-9.266,0.316,4.827,0.099,0.6996,0.16820000000000002,0.015,-0.012,-0.009000000000000001
1670268816.479959,-9.244,0.226,4.8180000000000005,0.10360000000000001,0.7016,0.1666,0.023,-0.022,-0.018000000000000002
1670268816.519959,-9.200000000000001,0.34400000000000003,4.7780000000000005,0.10110000000000001,0.7020000000000001,0.1665,0.011,-0.027,-0.001
1670268816.559959,-9.224,0.213,4.828,0.09870000000000001,0.6998000000000001,0.1661,0.021,-0.019,-0.006
1670268816.599959,-9.213000000000001,0.314,4.795,0.0985,0.6996,0.1663,0.028,-0.001,0.0
1670268816.639959,-9.214,0.28800000000000003,4.806,0.0983,0.7003,0.1646,0.021,-0.003,0.009000000000000001
1670268816.679959,-9.227,0.32,4.779,0.0999,0.7038,0.1661,0.023,-0.003,0.001
1670268816.719959,-9.241,0.324,4.8,0.098,0.7032,0.167,0.02,-0.002,-0.002
1670268816.759959,-9.258000000000001,0.278,4.785,0.1,0.7000000000000001,0.166,0.026000000000000002,-0.01,-0.002
1670268816.799959,-9.213000000000001,0.277,4.748,0.0995,0.6995,0.1666,0.009000000000000001,-0.013000000000000001,-0.003
1670268816.839959,-9.231,0.293,4.779,0.1,0.7003,0.1648,0.008,-0.009000000000000001,-0.001
1670268816.879959,-9.251,0.307,4.746,0.0941,0.7015,0.1693,0.018000000000000002,-0.01,-0.005
1670268816.919959,-9.212,0.301,4.795,0.0981,0.7005,0.1661,0.023,-0.008,-0.002
1670268816.959959,-9.223,0.277,4.768,0.1005,0.6997,0.1641,0.022,-0.016,-0.006
1670268816.999959,-9.23,0.247,4.74,0.10110000000000001,0.7008,0.1658,0.015,-0.014,-0.007
1670268817.039959,-9.197000000000001,0.325,4.837,0.1004,0.7002,0.16540000000000002,0.016,-0.025,0.005
1670268817.079959,-9.211,0.328,4.851,0.1015,0.7001000000000001,0.1685,0.013000000000000001,-0.021,0.011
1670268817.119959,-9.254,0.28500000000000003,4.789,0.0978,0.7003,0.167,0.034,-0.006,0.0
1670268817.159959,-9.171,0.322,4.716,0.09920000000000001,0.7006,0.16740000000000002,0.026000000000000002,-0.003,-0.007
1670268817.199959,-9.238,0.246,4.735,0.1005,0.7012,0.1661,0.004,-0.009000000000000001,0.007
1670268817.239959,-9.232,0.331,4.773,0.098,0.7011000000000001,0.16770000000000002,0.011,-0.011,0.004
1670268817.279959,-9.25,0.328,4.748,0.1023,0.6986,0.1688,0.015,-0.006,0.002
1670268817.319959,-9.247,0.245,4.819,0.0989,0.6988000000000001,0.16970000000000002,0.019,-0.018000000000000002,-0.01
1670268817.359959,-9.248,0.374,4.798,0.099,0.7008,0.1668,0.015,-0.021,0.0
1670268817.3999588,-9.258000000000001,0.247,4.763,0.1014,0.7016,0.1651,0.011,-0.007,0.001
1670268817.439959,-9.196,0.294,4.752,0.09910000000000001,0.7010000000000001,0.16620000000000001,0.017,0.0,0.001
1670268817.479959,-9.172,0.303,4.743,0.0965,0.7018,0.16570000000000001,0.014,-0.001,0.01
1670268817.519958,-9.185,0.336,4.761,0.0995,0.6986,0.16440000000000002,0.018000000000000002,-0.007,0.0
1670268817.559958,-9.212,0.341,4.767,0.1,0.6978000000000001,0.16490000000000002,0.02,-0.009000000000000001,-0.003
1670268817.599958,-9.22,0.309,4.819,0.09970000000000001,0.6999000000000001,0.1647,0.012,-0.014,-0.005
1670268817.639958,-9.24,0.307,4.803,0.1,0.6960000000000001,0.1709,0.0,-0.013000000000000001,0.001
1670268817.679958,-9.228,0.308,4.751,0.10110000000000001,0.7003,0.16820000000000002,0.004,-0.012,0.001
1670268817.719958,-9.243,0.343,4.776,0.0989,0.6993,0.16540000000000002,0.038,-0.002,-0.003
1670268817.759958,-9.231,0.302,4.699,0.1022,0.6995,0.16740000000000002,0.038,-0.013000000000000001,-0.005
1670268817.799958,-9.204,0.306,4.741,0.1003,0.6991,0.165,0.008,-0.024,0.0
1670268817.839958,-9.256,0.28200000000000003,4.74,0.1,0.7000000000000001,0.16690000000000002,0.001,-0.016,0.002
1670268817.879958,-9.19,0.313,4.7620000000000005,0.0859,0.6965,0.16870000000000002,0.006,-0.021,0.0
1670268817.919958,-9.205,0.34700000000000003,4.844,0.0999,0.6996,0.16440000000000002,0.015,-0.02,-0.01
1670268817.959958,-9.202,0.337,4.804,0.0998,0.7011000000000001,0.1661,0.037,-0.019,-0.008
1670268817.999958,-9.287,0.28800000000000003,4.749,0.10070000000000001,0.6996,0.1671,0.029,-0.01,-0.007
1670268818.039958,-9.184000000000001,0.314,4.803,0.09910000000000001,0.6958000000000001,0.1525,0.015,-0.014,-0.001
1670268818.079958,-9.217,0.28500000000000003,4.719,0.0976,0.6987,0.17550000000000002,0.002,-0.019,0.006
1670268818.119958,-9.233,0.354,4.804,0.0993,0.7013,0.18330000000000002,0.015,-0.02,-0.008
1670268818.159958,-9.247,0.233,4.796,0.0998,0.6995,0.15280000000000002,0.025,-0.016,-0.02
1670268818.1999578,-9.185,0.34900000000000003,4.829,0.1,0.6969000000000001,0.14170000000000002,0.008,-0.028,-0.003
1670268818.239958,-9.22,0.266,4.851,0.09920000000000001,0.6996,0.1658,0.013000000000000001,-0.016,-0.003
1670268818.279958,-9.22,0.34700000000000003,4.759,0.0988,0.7011000000000001,0.1646,0.016,0.0,0.001
1670268818.319958,-9.222,0.305,4.765,0.09770000000000001,0.6989000000000001,0.16820000000000002,0.012,0.005,0.002
1670268818.359958,-9.200000000000001,0.341,4.792,0.09730000000000001,0.6997,0.16540000000000002,0.008,-0.002,0.003
1670268818.399958,-9.223,0.329,4.751,0.0989,0.7003,0.1656,0.018000000000000002,-0.01,-0.006
1670268818.4399579,-9.214,0.28700000000000003,4.782,0.0971,0.6994,0.16540000000000002,0.018000000000000002,-0.018000000000000002,-0.016
1670268818.479958,-9.257,0.278,4.749,0.1004,0.7023,0.16590000000000002,0.005,-0.014,-0.006
1670268818.519958,-9.257,0.301,4.752,0.099,0.7009000000000001,0.1635,0.0,-0.012,-0.008
1670268818.559958,-9.22,0.316,4.824,0.0983,0.7005,0.1663,0.014,-0.011,-0.001
1670268818.599958,-9.229000000000001,0.324,4.776,0.0964,0.6989000000000001,0.1632,0.025,-0.013000000000000001,-0.01
1670268818.639957,-9.235,0.28400000000000003,4.8100000000000005,0.0971,0.6976,0.1671,0.026000000000000002,-0.016,-0.006
1670268818.679957,-9.239,0.256,4.772,0.1004,0.7001000000000001,0.16770000000000002,0.025,-0.018000000000000002,-0.009000000000000001
1670268818.719957,-9.227,0.246,4.796,0.099,0.6993,0.1652,0.013000000000000001,-0.022,0.0
1670268818.759957,-9.236,0.315,4.788,0.0964,0.7007,0.1655,0.015,-0.018000000000000002,0.001
1670268818.799957,-9.254,0.362,4.7940000000000005,0.0988,0.6996,0.1665,0.025,-0.017,0.014
1670268818.839957,-9.251,0.254,4.776,0.1004,0.6987,0.16620000000000001,0.031,-0.005,0.0
1670268818.879957,-9.165000000000001,0.332,4.748,0.10070000000000001,0.7014,0.1663,0.02,-0.01,-0.007
1670268818.919957,-9.215,0.27,4.76,0.09920000000000001,0.6988000000000001,0.164,0.007,-0.013000000000000001,0.008
1670268818.959957,-9.242,0.34800000000000003,4.79,0.10060000000000001,0.7002,0.166,0.008,-0.012,-0.008
1670268818.9999568,-9.263,0.36,4.837,0.0983,0.6997,0.1622,0.014,-0.017,-0.005
1670268819.039957,-9.218,0.233,4.812,0.0995,0.7004,0.1665,0.008,-0.024,-0.005
1670268819.079957,-9.217,0.356,4.8,0.098,0.7005,0.169,0.012,-0.025,-0.009000000000000001
1670268819.119957,-9.244,0.28,4.743,0.09860000000000001,0.6983,0.1665,0.014,-0.015,-0.005
1670268819.159957,-9.211,0.301,4.791,0.0901,0.7000000000000001,0.1655,0.014,-0.009000000000000001,0.004
1670268819.199957,-9.218,0.299,4.799,0.099,0.6997,0.16490000000000002,0.016,-0.008,0.004
1670268819.2399569,-9.202,0.326,4.807,0.09730000000000001,0.7002,0.16390000000000002,0.02,-0.014,-0.002
1670268819.279957,-9.264,0.299,4.788,0.09820000000000001,0.7000000000000001,0.166,0.018000000000000002,-0.013000000000000001,-0.001
1670268819.319957,-9.244,0.299,4.822,0.0998,0.6998000000000001,0.16740000000000002,0.008,-0.014,-0.006
1670268819.359957,-9.237,0.29,4.831,0.1008,0.6994,0.16490000000000002,0.002,-0.018000000000000002,-0.012
1670268819.399957,-9.203,0.305,4.792,0.099,0.7004,0.165,0.0,-0.014,0.0
1670268819.439957,-9.214,0.302,4.838,0.10010000000000001,0.7019000000000001,0.1646,0.013000000000000001,-0.013000000000000001,-0.004
1670268819.4799569,-9.212,0.299,4.767,0.0978,0.7016,0.1651,0.019,-0.014,-0.011
1670268819.519957,-9.197000000000001,0.305,4.7540000000000004,0.097,0.6991,0.1632,0.022,-0.023,-0.01
1670268819.559957,-9.199,0.243,4.771,0.0998,0.7001000000000001,0.1685,0.019,-0.025,-0.011
1670268819.599957,-9.212,0.251,4.89,0.09870000000000001,0.7024,0.1653,0.016,-0.021,0.006
1670268819.639957,-9.25,0.34500000000000003,4.841,0.0896,0.6968000000000001,0.17600000000000002,0.025,-0.01,-0.004
1670268819.679956,-9.175,0.241,4.791,0.0959,0.6996,0.1673,0.021,-0.012,-0.008
1670268819.719956,-9.191,0.28600000000000003,4.726,0.0984,0.7019000000000001,0.1715,0.02,-0.015,-0.001
1670268819.759956,-9.245000000000001,0.32,4.777,0.0993,0.7014,0.1681,0.017,-0.01,0.002
1670268819.7999558,-9.235,0.28600000000000003,4.783,0.0975,0.7008,0.1668,0.02,-0.016,0.0
1670268819.839956,-9.204,0.259,4.833,0.099,0.7032,0.16390000000000002,0.012,-0.018000000000000002,-0.007
1670268819.879956,-9.17,0.318,4.884,0.09090000000000001,0.6991,0.17700000000000002,0.015,-0.014,-0.005
1670268819.919956,-9.268,0.243,4.836,0.0946,0.7021000000000001,0.1811,0.022,-0.006,-0.002
1670268819.959956,-9.196,0.31,4.83,0.09720000000000001,0.6997,0.1658,0.018000000000000002,0.001,0.003
1670268819.999956,-9.196,0.323,4.765,0.0994,0.7013,0.1384,0.009000000000000001,-0.002,0.009000000000000001
1670268820.0399559,-9.200000000000001,0.31,4.819,0.0915,0.7014,0.1381,0.019,-0.002,0.003
1670268820.079956,-9.224,0.304,4.846,0.09970000000000001,0.7003,0.17,0.016,-0.012,-0.007
1670268820.119956,-9.218,0.262,4.788,0.1023,0.6989000000000001,0.16590000000000002,0.012,-0.013000000000000001,-0.003
1670268820.159956,-9.235,0.28500000000000003,4.791,0.0993,0.7004,0.16840000000000002,0.007,-0.019,0.002
1670268820.199956,-9.223,0.29,4.807,0.09970000000000001,0.7019000000000001,0.16590000000000002,0.008,-0.012,0.002
1670268820.239956,-9.243,0.316,4.78,0.09720000000000001,0.6971,0.16540000000000002,0.024,-0.009000000000000001,-0.003
1670268820.2799559,-9.203,0.299,4.801,0.09730000000000001,0.6983,0.1646,0.032,-0.003,-0.005
1670268820.319956,-9.202,0.292,4.809,0.0985,0.7007,0.16670000000000001,0.014,-0.016,-0.004
1670268820.359956,-9.27,0.28300000000000003,4.8100000000000005,0.0994,0.6989000000000001,0.1658,0.019,-0.013000000000000001,0.005
1670268820.399956,-9.263,0.361,4.838,0.0955,0.7010000000000001,0.16740000000000002,0.031,-0.013000000000000001,0.003
1670268820.439956,-9.151,0.29,4.743,0.0981,0.7000000000000001,0.17420000000000002,0.029,-0.009000000000000001,-0.003
1670268820.479956,-9.203,0.278,4.764,0.10010000000000001,0.7020000000000001,0.16490000000000002,0.019,-0.012,-0.003
1670268820.5199559,-9.244,0.278,4.804,0.0983,0.6989000000000001,0.1668,-0.009000000000000001,0.013000000000000001,0.018000000000000002
1670268820.559956,-9.23,0.315,4.774,0.09970000000000001,0.7006,0.16720000000000002,-0.005,0.012,0.014
1670268820.599956,-9.159,0.307,4.8340000000000005,0.0971,0.7006,0.1666,0.019,-0.012,-0.008
1670268820.639956,-9.200000000000001,0.335,4.846,0.09970000000000001,0.7027,0.1665,0.034,-0.032,-0.008
1670268820.679956,-9.248,0.22,4.749,0.0976,0.6997,0.1685,0.061,-0.041,-0.018000000000000002
1670268820.719955,-9.248,0.357,4.788,0.0995,0.7000000000000001,0.1628,0.041,-0.018000000000000002,-0.009000000000000001
1670268820.759955,-9.174,0.259,4.7620000000000005,0.0993,0.6966,0.16670000000000001,0.026000000000000002,-0.016,0.013000000000000001
1670268820.799955,-9.248,0.356,4.8180000000000005,0.098,0.6991,0.1668,0.02,-0.015,0.007
1670268820.8399549,-9.209,0.394,4.784,0.098,0.7003,0.1652,0.036000000000000004,-0.019,-0.004
1670268820.879955,-9.208,0.314,4.797,0.0959,0.6974,0.16620000000000001,0.028,-0.018000000000000002,-0.01
1670268820.919955,-9.248,0.328,4.801,0.0956,0.6962,0.1708,0.012,-0.013000000000000001,-0.004
1670268820.959955,-9.215,0.317,4.799,0.099,0.6963,0.1666,-0.003,-0.012,-0.002
1670268820.999955,-9.176,0.34600000000000003,4.833,0.0988,0.7003,0.16740000000000002,0.0,-0.008,-0.014
1670268821.039955,-9.244,0.328,4.795,0.1004,0.7005,0.16390000000000002,0.013000000000000001,-0.004,-0.014
1670268821.0799549,-9.194,0.307,4.788,0.099,0.7022,0.1647,0.002,-0.005,-0.012
1670268821.119955,-9.223,0.29,4.798,0.0959,0.7030000000000001,0.1663,-0.001,0.005,-0.005
1670268821.159955,-9.211,0.232,4.765,0.0995,0.7007,0.1653,-0.005,-0.01,-0.004
1670268821.199955,-9.239,0.272,4.859,0.09860000000000001,0.6993,0.1676,0.002,-0.01,0.012
1670268821.239955,-9.326,0.402,4.796,0.1003,0.6994,0.1646,0.023,-0.007,-0.004
1670268821.279955,-9.188,0.23600000000000002,4.764,0.09920000000000001,0.7017,0.1665,0.023,-0.01,-0.007
1670268821.3199549,-9.22,0.265,4.722,0.0978,0.7011000000000001,0.165,0.012,-0.021,0.0
1670268821.359955,-9.241,0.277,4.797,0.1009,0.7022,0.1648,0.011,-0.012,0.007
1670268821.399955,-9.232,0.304,4.843,0.0974,0.7011000000000001,0.1668,0.022,-0.023,0.001
1670268821.439955,-9.209,0.28400000000000003,4.867,0.0979,0.6997,0.1638,0.025,-0.031,-0.016
1670268821.479955,-9.164,0.28300000000000003,4.889,0.0974,0.7021000000000001,0.16620000000000001,0.02,-0.031,-0.002
1670268821.519955,-9.258000000000001,0.278,4.806,0.09970000000000001,0.7007,0.164,0.018000000000000002,-0.02,0.005
1670268821.559955,-9.218,0.322,4.7860000000000005,0.097,0.6994,0.16290000000000002,0.022,-0.007,0.0
1670268821.599955,-9.194,0.29,4.7780000000000005,0.09860000000000001,0.6997,0.1676,0.018000000000000002,-0.001,0.008
1670268821.639955,-9.199,0.315,4.827,0.08460000000000001,0.6958000000000001,0.17400000000000002,0.021,-0.006,0.01
1670268821.679955,-9.202,0.34700000000000003,4.785,0.098,0.7013,0.1675,0.018000000000000002,-0.012,0.003
1670268821.719955,-9.233,0.304,4.809,0.0985,0.6998000000000001,0.16620000000000001,0.014,-0.009000000000000001,-0.004
