timestamp,acc_x,acc_y,acc_z,magn_x,magn_y,magn_z,gyro_x,gyro_y,gyro_z
1670356117.08,-9.331,-0.46,4.531,-0.647,-0.3784,0.3788,-0.003,0.013000000000000001,-0.049
1670356117.12,-9.370000000000001,-0.45,4.5440000000000005,-0.6455000000000001,-0.3789,0.37720000000000004,0.004,0.009000000000000001,-0.056
1670356117.16,-9.345,-0.502,4.539,-0.6476000000000001,-0.3775,0.377,0.003,0.006,-0.064
1670356117.2,-9.346,-0.529,4.556,-0.6509,-0.37670000000000003,0.3749,-0.009000000000000001,0.008,-0.059000000000000004
1670356117.24,-9.334,-0.496,4.5520000000000005,-0.6461,-0.37420000000000003,0.37420000000000003,-0.011,0.014,-0.057
1670356117.28,-9.355,-0.49,4.527,-0.6441,-0.3758,0.3775,-0.003,0.016,-0.056
1670356117.32,-9.34,-0.506,4.54,-0.648,-0.3786,0.37770000000000004,0.0,0.02,-0.058
1670356117.36,-9.336,-0.516,4.564,-0.6474000000000001,-0.3776,0.3745,-0.001,0.02,-0.054
1670356117.4,-9.362,-0.504,4.539,-0.6467,-0.37560000000000004,0.37920000000000004,0.002,0.021,-0.057
1670356117.44,-9.354000000000001,-0.491,4.515,-0.6472,-0.3748,0.37510000000000004,0.007,0.021,-0.058
1670356117.48,-9.334,-0.537,4.553,-0.6444000000000001,-0.37560000000000004,0.3759,-0.002,0.019,-0.044
1670356117.52,-9.333,-0.509,4.54,-0.6467,-0.3725,0.3739,0.002,0.009000000000000001,-0.036000000000000004
1670356117.559999,-9.406,-0.488,4.556,-0.6471,-0.3768,0.377,0.014,0.033,-0.051000000000000004
1670356117.599999,-9.356,-0.462,4.522,-0.6446000000000001,-0.3765,0.375,0.013000000000000001,0.025,-0.061
1670356117.639999,-9.329,-0.5690000000000001,4.508,-0.6482,-0.3744,0.37520000000000003,0.0,0.025,-0.051000000000000004
1670356117.6799989,-9.339,-0.492,4.527,-0.646,-0.37460000000000004,0.376,-0.004,0.017,-0.044
1670356117.719999,-9.365,-0.491,4.567,-0.6446000000000001,-0.375,0.3728,-0.003,0.013000000000000001,-0.055
1670356117.759999,-9.34,-0.539,4.5440000000000005,-0.6445000000000001,-0.3734,0.3788,0.0,0.013000000000000001,-0.064
1670356117.799999,-9.305,-0.508,4.537,-0.6455000000000001,-0.3775,0.374,-0.004,0.011,-0.053
1670356117.839999,-9.364,-0.5700000000000001,4.491,-0.6463,-0.3749,0.37310000000000004,0.004,0.017,-0.052000000000000005
1670356117.879999,-9.373,-0.486,4.525,-0.6474000000000001,-0.3773,0.37470000000000003,0.0,0.032,-0.053
1670356117.919999,-9.338000000000001,-0.501,4.527,-0.6449,-0.376,0.3781,0.013000000000000001,0.033,-0.055
1670356117.959999,-9.314,-0.498,4.506,-0.647,-0.3744,0.37360000000000004,0.005,0.019,-0.049
1670356117.999999,-9.349,-0.551,4.5040000000000004,-0.6486000000000001,-0.37410000000000004,0.3745,0.002,0.008,-0.046
1670356118.039999,-9.369,-0.487,4.533,-0.6452,-0.3735,0.3758,0.001,0.008,-0.056
1670356118.079999,-9.338000000000001,-0.535,4.527,-0.6446000000000001,-0.3748,0.37560000000000004,0.001,0.005,-0.058
1670356118.119999,-9.394,-0.545,4.55,-0.6449,-0.37370000000000003,0.37510000000000004,-0.005,0.016,-0.049
1670356118.159999,-9.355,-0.499,4.546,-0.6441,-0.37510000000000004,0.37670000000000003,0.0,0.019,-0.047
1670356118.199999,-9.364,-0.512,4.597,-0.6481,-0.37670000000000003,0.3748,0.005,0.024,-0.057
1670356118.239999,-9.338000000000001,-0.512,4.547,-0.6447,-0.37720000000000004,0.3744,0.013000000000000001,0.027,-0.053
1670356118.279999,-9.337,-0.518,4.555,-0.6463,-0.3758,0.3735,0.014,0.015,-0.052000000000000005
1670356118.319999,-9.27,-0.547,4.543,-0.6443,-0.3764,0.3755,0.0,0.011,-0.041
1670356118.359999,-9.36,-0.496,4.545,-0.6452,-0.375,0.3763,0.0,0.012,-0.044
1670356118.399999,-9.397,-0.518,4.495,-0.6451,-0.3749,0.365,0.008,0.023,-0.054
1670356118.439999,-9.311,-0.46900000000000003,4.499,-0.6477,-0.37460000000000004,0.3831,0.014,0.018000000000000002,-0.058
1670356118.479999,-9.311,-0.534,4.497,-0.6477,-0.3738,0.3472,0.001,0.013000000000000001,-0.053
1670356118.519999,-9.302,-0.534,4.497,-0.6474000000000001,-0.3738,0.3472,0.0,0.005,-0.049
1670356118.559999,-9.372,-0.47100000000000003,4.531,-0.6477,-0.3781,0.39030000000000004,0.009000000000000001,0.003,-0.061
1670356118.599998,-9.376,-0.497,4.564,-0.6463,-0.375,0.3966,0.009000000000000001,0.006,-0.057
1670356118.639998,-9.311,-0.592,4.548,-0.646,-0.37370000000000003,0.3668,-0.009000000000000001,0.005,-0.047
1670356118.679998,-9.302,-0.483,4.609,-0.6455000000000001,-0.3745,0.3793,-0.003,0.009000000000000001,-0.043000000000000003
1670356118.719998,-9.352,-0.5640000000000001,4.5360000000000005,-0.6484,-0.3775,0.37310000000000004,0.01,0.02,-0.05
1670356118.759998,-9.333,-0.47800000000000004,4.543,-0.6436000000000001,-0.3753,0.3768,0.001,0.02,-0.039
1670356118.799998,-9.314,-0.518,4.564,-0.6465000000000001,-0.3771,0.378,0.001,0.024,-0.035
1670356118.839998,-9.347,-0.483,4.567,-0.6482,-0.3775,0.3769,0.01,0.008,-0.052000000000000005
1670356118.879998,-9.35,-0.49,4.573,-0.6476000000000001,-0.3768,0.3744,0.012,0.006,-0.058
1670356118.919998,-9.317,-0.51,4.575,-0.6463,-0.374,0.3774,0.001,0.008,-0.049
1670356118.959998,-9.36,-0.522,4.583,-0.6437,-0.3758,0.37560000000000004,-0.009000000000000001,0.006,-0.049
1670356118.999998,-9.312,-0.494,4.559,-0.6462,-0.37610000000000005,0.37570000000000003,-0.003,0.009000000000000001,-0.054
1670356119.039998,-9.342,-0.507,4.581,-0.648,-0.37720000000000004,0.3785,0.005,0.014,-0.05
1670356119.079998,-9.328,-0.517,4.588,-0.6482,-0.37360000000000004,0.3758,0.01,0.013000000000000001,-0.053
1670356119.119998,-9.294,-0.504,4.579,-0.6537000000000001,-0.3759,0.378,0.005,0.007,-0.049
1670356119.159998,-9.282,-0.522,4.625,-0.6465000000000001,-0.37570000000000003,0.375,0.003,0.008,-0.046
1670356119.199998,-9.346,-0.483,4.589,-0.6466000000000001,-0.3745,0.3795,0.02,0.009000000000000001,-0.043000000000000003
1670356119.239998,-9.35,-0.555,4.554,-0.6483,-0.3739,0.3758,0.012,0.017,-0.045
1670356119.279998,-9.254,-0.462,4.597,-0.6461,-0.3748,0.378,0.006,0.016,-0.049
1670356119.319998,-9.299,-0.499,4.548,-0.6474000000000001,-0.37470000000000003,0.3769,0.007,0.015,-0.05
1670356119.359998,-9.373,-0.509,4.619,-0.6461,-0.37620000000000003,0.3765,0.006,0.02,-0.055
1670356119.399998,-9.348,-0.492,4.616,-0.6487,-0.37610000000000005,0.3749,0.002,0.023,-0.049
1670356119.439998,-9.327,-0.5700000000000001,4.589,-0.6452,-0.3789,0.3819,-0.008,0.02,-0.053
1670356119.479998,-9.316,-0.419,4.632,-0.6479,-0.3785,0.3794,0.005,0.02,-0.054
1670356119.519998,-9.346,-0.501,4.5600000000000005,-0.6485000000000001,-0.37620000000000003,0.3781,0.012,0.026000000000000002,-0.049
1670356119.559998,-9.313,-0.504,4.597,-0.648,-0.3733,0.3765,0.015,0.026000000000000002,-0.04
1670356119.599998,-9.302,-0.484,4.5920000000000005,-0.6443,-0.37420000000000003,0.37620000000000003,0.009000000000000001,0.023,-0.04
1670356119.639997,-9.297,-0.47000000000000003,4.579,-0.6474000000000001,-0.37610000000000005,0.3739,0.021,0.014,-0.05
1670356119.679997,-9.318,-0.489,4.558,-0.6484,-0.3753,0.377,0.015,0.012,-0.056
1670356119.719997,-9.309000000000001,-0.523,4.57,-0.6478,-0.37670000000000003,0.3785,0.004,0.017,-0.052000000000000005
1670356119.759997,-9.302,-0.466,4.538,-0.6493,-0.3794,0.37720000000000004,0.001,0.018000000000000002,-0.045
1670356119.799997,-9.309000000000001,-0.484,4.581,-0.6482,-0.3773,0.3786,0.005,0.021,-0.045
1670356119.839997,-9.332,-0.46900000000000003,4.581,-0.6486000000000001,-0.377,0.3769,0.014,0.022,-0.051000000000000004
1670356119.879997,-9.331,-0.47700000000000004,4.574,-0.6471,-0.377,0.37470000000000003,0.011,0.023,-0.053
1670356119.919997,-9.295,-0.514,4.5520000000000005,-0.6438,-0.3766,0.3778,0.003,0.02,-0.051000000000000004
1670356119.959997,-9.308,-0.502,4.561,-0.6452,-0.3748,0.3745,0.003,0.014,-0.041
1670356119.999997,-9.393,-0.419,4.58,-0.6466000000000001,-0.3764,0.37510000000000004,0.007,0.029,-0.049
1670356120.039997,-9.314,-0.447,4.54,-0.6454000000000001,-0.3773,0.3779,0.021,0.024,-0.059000000000000004
1670356120.079997,-9.285,-0.499,4.541,-0.6481,-0.3753,0.37610000000000005,0.008,0.021,-0.046
1670356120.119997,-9.317,-0.449,4.574,-0.6462,-0.3789,0.3745,0.0,0.014,-0.047
1670356120.159997,-9.357,-0.446,4.582,-0.6474000000000001,-0.3769,0.3791,0.008,0.009000000000000001,-0.053
1670356120.199997,-9.306000000000001,-0.506,4.606,-0.6461,-0.37460000000000004,0.376,0.008,0.013000000000000001,-0.069
1670356120.239997,-9.265,-0.457,4.609,-0.6476000000000001,-0.3784,0.3744,-0.005,0.012,-0.051000000000000004
1670356120.279997,-9.309000000000001,-0.525,4.577,-0.6493,-0.3766,0.3774,0.009000000000000001,0.015,-0.052000000000000005
1670356120.319997,-9.324,-0.424,4.583,-0.6451,-0.378,0.37870000000000004,0.007,0.018000000000000002,-0.057
1670356120.359997,-9.286,-0.47600000000000003,4.555,-0.6454000000000001,-0.37670000000000003,0.3753,0.01,0.022,-0.05
1670356120.399997,-9.306000000000001,-0.457,4.57,-0.6466000000000001,-0.3738,0.37560000000000004,0.003,0.021,-0.049
1670356120.439997,-9.338000000000001,-0.451,4.589,-0.6501,-0.3773,0.382,0.007,0.018000000000000002,-0.054
1670356120.479997,-9.336,-0.48,4.572,-0.6505000000000001,-0.3775,0.3788,0.012,0.012,-0.055
1670356120.519997,-9.34,-0.494,4.567,-0.6467,-0.3776,0.3774,0.007,0.012,-0.054
1670356120.5599968,-9.305,-0.488,4.595,-0.6474000000000001,-0.3783,0.37720000000000004,-0.002,0.016,-0.05
1670356120.599997,-9.322000000000001,-0.451,4.573,-0.6487,-0.3773,0.37510000000000004,0.004,0.012,-0.059000000000000004
1670356120.639997,-9.321,-0.456,4.5840000000000005,-0.6476000000000001,-0.37610000000000005,0.37820000000000004,0.009000000000000001,0.017,-0.053
1670356120.679996,-9.295,-0.48,4.586,-0.6502,-0.37820000000000004,0.3645,0.017,0.015,-0.047
1670356120.719996,-9.295,-0.52,4.58,-0.6502,-0.3783,0.3855,0.01,0.02,-0.055
1670356120.759996,-9.321,-0.52,4.613,-0.6477,-0.3783,0.3855,0.004,0.016,-0.053
1670356120.799996,-9.337,-0.491,4.613,-0.6483,-0.3779,0.37670000000000003,0.0,0.009000000000000001,-0.043000000000000003
1670356120.839996,-9.357,-0.364,4.594,-0.6462,-0.3758,0.38830000000000003,0.019,0.028,-0.053
1670356120.879996,-9.321,-0.527,4.566,-0.6503,-0.37620000000000003,0.3859,0.02,0.021,-0.06
1670356120.919996,-9.26,-0.452,4.538,-0.6488,-0.37770000000000004,0.3487,0.0,0.019,-0.05
1670356120.959996,-9.306000000000001,-0.454,4.571,-0.647,-0.3754,0.3679,-0.004,0.017,-0.048
1670356120.999996,-9.326,-0.445,4.603,-0.6483,-0.37670000000000003,0.3769,0.006,0.014,-0.056
1670356121.039996,-9.335,-0.465,4.609,-0.6495000000000001,-0.378,0.3748,0.006,0.012,-0.061
1670356121.079996,-9.326,-0.524,4.5920000000000005,-0.6483,-0.3765,0.3786,-0.004,0.003,-0.047
1670356121.119996,-9.331,-0.402,4.623,-0.6482,-0.3798,0.3791,0.009000000000000001,0.018000000000000002,-0.047
1670356121.159996,-9.331,-0.46900000000000003,4.615,-0.6476000000000001,-0.3773,0.37670000000000003,0.003,0.029,-0.056
1670356121.199996,-9.32,-0.495,4.579,-0.6508,-0.3766,0.3791,-0.001,0.025,-0.038
1670356121.239996,-9.287,-0.45,4.58,-0.6499,-0.3806,0.3778,-0.007,0.021,-0.037
1670356121.279996,-9.33,-0.436,4.6080000000000005,-0.6535000000000001,-0.38380000000000003,0.3856,0.004,0.011,-0.057
1670356121.319996,-9.323,-0.462,4.607,-0.6462,-0.378,0.37620000000000003,0.005,0.009000000000000001,-0.06
1670356121.359996,-9.327,-0.498,4.578,-0.6619,-0.3786,0.37870000000000004,-0.004,0.012,-0.052000000000000005
1670356121.399996,-9.298,-0.47000000000000003,4.602,-0.6511,-0.3768,0.37510000000000004,-0.011,0.014,-0.049
1670356121.439996,-9.32,-0.45,4.619,-0.6485000000000001,-0.3776,0.3791,-0.005,0.015,-0.051000000000000004
1670356121.479996,-9.32,-0.466,4.582,-0.6489,-0.3783,0.3801,0.009000000000000001,0.013000000000000001,-0.053
1670356121.519996,-9.3,-0.46,4.575,-0.6484,-0.3781,0.3754,0.007,0.01,-0.054
1670356121.559996,-9.31,-0.466,4.625,-0.6452,-0.37610000000000005,0.3758,0.008,0.009000000000000001,-0.056
1670356121.5999959,-9.313,-0.483,4.607,-0.6491,-0.37460000000000004,0.3773,0.01,0.007,-0.045
1670356121.639996,-9.321,-0.483,4.595,-0.6474000000000001,-0.377,0.37820000000000004,0.003,0.019,-0.043000000000000003
1670356121.679996,-9.321,-0.508,4.607,-0.6464000000000001,-0.37820000000000004,0.3774,0.0,0.022,-0.036000000000000004
1670356121.719995,-9.323,-0.436,4.585,-0.6481,-0.3771,0.3798,0.018000000000000002,0.012,-0.047
1670356121.759995,-9.279,-0.452,4.617,-0.6471,-0.378,0.378,0.032,0.0,-0.064
1670356121.799995,-9.345,-0.516,4.612,-0.6488,-0.3773,0.37870000000000004,0.024,0.003,-0.041
1670356121.839995,-9.418000000000001,-0.44,4.636,-0.6483,-0.3798,0.3801,0.006,0.021,-0.033
1670356121.879995,-9.25,-0.421,4.567,-0.6487,-0.37820000000000004,0.3763,0.007,0.013000000000000001,-0.045
1670356121.919995,-9.236,-0.45,4.601,-0.6498,-0.3791,0.3758,0.011,0.008,-0.048
1670356121.959995,-9.325000000000001,-0.429,4.655,-0.6493,-0.378,0.3791,0.005,0.009000000000000001,-0.053
1670356121.999995,-9.316,-0.432,4.66,-0.6479,-0.37510000000000004,0.3776,0.004,0.018000000000000002,-0.049
1670356122.039995,-9.271,-0.466,4.692,-0.6492,-0.37770000000000004,0.3765,-0.002,0.023,-0.058
1670356122.079995,-9.25,-0.457,4.643,-0.6476000000000001,-0.37970000000000004,0.3795,-0.006,0.01,-0.049
1670356122.119995,-9.315,-0.46900000000000003,4.63,-0.6481,-0.377,0.37610000000000005,-0.006,0.031,-0.058
1670356122.159995,-9.304,-0.436,4.611,-0.648,-0.3803,0.3785,0.0,0.031,-0.06
1670356122.199995,-9.263,-0.47900000000000004,4.638,-0.6496000000000001,-0.37620000000000003,0.3781,-0.009000000000000001,0.033,-0.048
1670356122.239995,-9.293000000000001,-0.457,4.639,-0.6498,-0.379,0.3775,-0.005,0.02,-0.05
1670356122.279995,-9.307,-0.448,4.641,-0.649,-0.3766,0.3739,0.005,0.009000000000000001,-0.059000000000000004
1670356122.319995,-9.301,-0.509,4.597,-0.6464000000000001,-0.3781,0.3775,0.014,0.009000000000000001,-0.06
1670356122.359995,-9.299,-0.511,4.634,-0.6481,-0.3775,0.3793,-0.006,0.013000000000000001,-0.052000000000000005
1670356122.3999949,-9.327,-0.47700000000000004,4.676,-0.6551,-0.3765,0.3743,-0.004,0.027,-0.052000000000000005
1670356122.439995,-9.312,-0.47800000000000004,4.67,-0.6509,-0.3779,0.3794,0.0,0.027,-0.057
1670356122.479995,-9.308,-0.48,4.655,-0.6499,-0.3769,0.3795,0.009000000000000001,0.022,-0.049
1670356122.519995,-9.277000000000001,-0.47200000000000003,4.5840000000000005,-0.6505000000000001,-0.3765,0.3771,0.005,0.02,-0.055
1670356122.559995,-9.293000000000001,-0.484,4.582,-0.6492,-0.37770000000000004,0.3783,0.009000000000000001,0.015,-0.048
1670356122.599995,-9.309000000000001,-0.459,4.649,-0.6488,-0.37670000000000003,0.3789,0.005,0.016,-0.056
1670356122.6399949,-9.299,-0.468,4.631,-0.649,-0.3783,0.37720000000000004,0.01,0.019,-0.056
1670356122.679995,-9.294,-0.509,4.639,-0.648,-0.3765,0.37920000000000004,0.003,0.016,-0.05
1670356122.719995,-9.331,-0.506,4.615,-0.6468,-0.3773,0.3825,0.006,0.02,-0.053
1670356122.759995,-9.372,-0.40700000000000003,4.628,-0.6469,-0.3781,0.3783,0.02,0.017,-0.037
1670356122.799995,-9.269,-0.456,4.601,-0.6487,-0.3773,0.3769,0.011,0.022,-0.061
1670356122.839994,-9.283,-0.489,4.566,-0.6484,-0.3789,0.3786,0.007,0.022,-0.054
1670356122.879994,-9.306000000000001,-0.453,4.601,-0.6492,-0.37970000000000004,0.37560000000000004,0.002,0.01,-0.051000000000000004
1670356122.919994,-9.312,-0.47900000000000004,4.656,-0.6488,-0.3773,0.3803,0.001,0.014,-0.052000000000000005
1670356122.959994,-9.282,-0.505,4.648,-0.6502,-0.3803,0.391,0.008,0.014,-0.057
1670356122.999994,-9.282,-0.493,4.646,-0.6502,-0.37620000000000003,0.3622,-0.005,0.016,-0.057
1670356123.039994,-9.241,-0.493,4.607,-0.6476000000000001,-0.37620000000000003,0.3622,0.003,0.02,-0.05
1670356123.079994,-9.318,-0.505,4.607,-0.6502,-0.3784,0.3881,0.011,0.025,-0.053
1670356123.119994,-9.32,-0.459,4.596,-0.6514,-0.3764,0.3889,0.005,0.025,-0.052000000000000005
1670356123.159994,-9.255,-0.484,4.594,-0.6517000000000001,-0.37920000000000004,0.3739,-0.001,0.017,-0.043000000000000003
1670356123.1999938,-9.272,-0.454,4.614,-0.6535000000000001,-0.3784,0.3881,0.009000000000000001,0.01,-0.058
1670356123.239994,-9.333,-0.438,4.654,-0.6502,-0.3775,0.3789,0.012,0.007,-0.061
1670356123.279994,-9.302,-0.499,4.619,-0.6593,-0.3793,0.389,0.001,0.013000000000000001,-0.051000000000000004
1670356123.319994,-9.317,-0.507,4.6290000000000004,-0.6507000000000001,-0.3773,0.3769,-0.007,0.014,-0.048
1670356123.359994,-9.282,-0.47100000000000003,4.6450000000000005,-0.6585000000000001,-0.3784,0.3801,-0.002,0.012,-0.051000000000000004
1670356123.399994,-9.312,-0.481,4.613,-0.6472,-0.3778,0.3798,0.003,0.018000000000000002,-0.058
1670356123.4399939,-9.298,-0.502,4.634,-0.6513,-0.378,0.38020000000000004,0.005,0.017,-0.054
1670356123.479994,-9.291,-0.509,4.633,-0.6504,-0.37670000000000003,0.38,0.0,0.016,-0.056
1670356123.519994,-9.284,-0.47500000000000003,4.621,-0.6502,-0.3763,0.376,0.011,0.013000000000000001,-0.049
1670356123.559994,-9.32,-0.47700000000000004,4.621,-0.648,-0.37770000000000004,0.37610000000000005,0.011,0.019,-0.052000000000000005
1670356123.599994,-9.315,-0.491,4.606,-0.6482,-0.3769,0.3796,0.014,0.022,-0.055
1670356123.639994,-9.274000000000001,-0.498,4.607,-0.6476000000000001,-0.37570000000000003,0.3793,-0.004,0.019,-0.049
1670356123.6799939,-9.231,-0.481,4.631,-0.6475000000000001,-0.3769,0.37970000000000004,-0.004,0.014,-0.055
1670356123.719994,-9.254,-0.459,4.614,-0.6519,-0.375,0.3784,0.014,0.011,-0.044
1670356123.759994,-9.302,-0.497,4.64,-0.6485000000000001,-0.3758,0.379,0.015,0.016,-0.054
1670356123.799994,-9.282,-0.435,4.574,-0.647,-0.3754,0.37920000000000004,0.006,0.013000000000000001,-0.055
1670356123.839994,-9.275,-0.514,4.5920000000000005,-0.6483,-0.3784,0.3778,-0.003,0.015,-0.045
1670356123.879993,-9.291,-0.481,4.648,-0.6469,-0.3791,0.37970000000000004,0.001,0.004,-0.053
1670356123.919993,-9.323,-0.47200000000000003,4.68,-0.6474000000000001,-0.3765,0.37720000000000004,0.007,0.007,-0.058
1670356123.959993,-9.267,-0.508,4.664,-0.6497,-0.37560000000000004,0.3776,0.002,0.01,-0.06
1670356123.9999928,-9.239,-0.512,4.651,-0.6508,-0.3778,0.37670000000000003,0.001,0.004,-0.048
1670356124.039993,-9.303,-0.537,4.624,-0.6466000000000001,-0.378,0.3781,0.005,0.021,-0.047
1670356124.079993,-9.294,-0.47800000000000004,4.613,-0.6494,-0.3765,0.3781,0.007,0.023,-0.057
1670356124.119993,-9.271,-0.502,4.587,-0.6488,-0.37720000000000004,0.3786,-0.001,0.015,-0.045
1670356124.159993,-9.268,-0.47200000000000003,4.6450000000000005,-0.6492,-0.3759,0.3783,-0.001,0.009000000000000001,-0.047
1670356124.199993,-9.306000000000001,-0.462,4.652,-0.6503,-0.37560000000000004,0.3789,0.01,0.003,-0.064
1670356124.2399929,-9.296,-0.527,4.654,-0.6505000000000001,-0.378,0.37510000000000004,0.004,0.006,-0.056
1670356124.279993,-9.265,-0.532,4.67,-0.6487,-0.3754,0.3795,-0.009000000000000001,0.013000000000000001,-0.047
1670356124.319993,-9.278,-0.5,4.664,-0.6521,-0.37570000000000003,0.38120000000000004,-0.005,0.011,-0.048
1670356124.359993,-9.28,-0.492,4.64,-0.649,-0.37510000000000004,0.3793,0.003,0.025,-0.048
1670356124.399993,-9.288,-0.507,4.687,-0.6505000000000001,-0.3758,0.3791,0.011,0.022,-0.055
1670356124.439993,-9.269,-0.526,4.642,-0.6521,-0.37560000000000004,0.37920000000000004,0.003,0.025,-0.052000000000000005
1670356124.4799929,-9.286,-0.53,4.643,-0.648,-0.37460000000000004,0.3808,-0.004,0.023,-0.05
1670356124.519993,-9.307,-0.508,4.682,-0.6501,-0.3754,0.3836,0.006,0.018000000000000002,-0.048
1670356124.559993,-9.288,-0.489,4.606,-0.6488,-0.3766,0.3783,0.002,0.024,-0.05
1670356124.599993,-9.301,-0.514,4.628,-0.6504,-0.3774,0.37610000000000005,0.008,0.029,-0.047
1670356124.639993,-9.305,-0.544,4.68,-0.6483,-0.37610000000000005,0.3783,0.008,0.023,-0.048
1670356124.679993,-9.251,-0.484,4.721,-0.648,-0.3773,0.3789,0.02,0.006,-0.061
1670356124.7199929,-9.314,-0.439,4.615,-0.6475000000000001,-0.37520000000000003,0.37560000000000004,0.039,0.005,-0.061
1670356124.759993,-9.306000000000001,-0.602,4.573,-0.6504,-0.3769,0.3819,0.039,0.018000000000000002,-0.062
1670356124.799993,-9.228,-0.485,4.628,-0.6499,-0.3753,0.38,0.014,0.013000000000000001,-0.04
1670356124.839993,-9.292,-0.47800000000000004,4.676,-0.6503,-0.37670000000000003,0.3769,0.006,0.013000000000000001,-0.03
1670356124.879993,-9.268,-0.47500000000000003,4.662,-0.6478,-0.3771,0.38120000000000004,0.008,0.02,-0.046
1670356124.919992,-9.32,-0.47100000000000003,4.6770000000000005,-0.6491,-0.37570000000000003,0.3824,0.009000000000000001,0.024,-0.051000000000000004
1670356124.959992,-9.267,-0.524,4.6770000000000005,-0.6468,-0.3776,0.3814,0.0,0.025,-0.052000000000000005
1670356124.999992,-9.261000000000001,-0.41000000000000003,4.699,-0.6497,-0.37510000000000004,0.38020000000000004,-0.016,0.02,-0.039
1670356125.0399919,-9.293000000000001,-0.514,4.622,-0.6444000000000001,-0.3758,0.3783,-0.01,0.03,-0.053
1670356125.079992,-9.296,-0.454,4.624,-0.6516000000000001,-0.3776,0.3801,-0.006,0.035,-0.055
1670356125.119992,-9.258000000000001,-0.47800000000000004,4.6370000000000005,-0.6483,-0.37720000000000004,0.37820000000000004,-0.005,0.029,-0.043000000000000003
1670356125.159992,-9.285,-0.465,4.643,-0.6486000000000001,-0.3753,0.3819,-0.002,0.024,-0.046
1670356125.199992,-9.302,-0.483,4.643,-0.6485000000000001,-0.3748,0.3875,0.0,0.013000000000000001,-0.059000000000000004
1670356125.239992,-9.256,-0.499,4.61,-0.6601,-0.37920000000000004,0.40090000000000003,0.005,0.008,-0.063
1670356125.2799919,-9.256,-0.504,4.632,-0.6601,-0.37920000000000004,0.36660000000000004,-0.004,0.004,-0.05
1670356125.319992,-9.279,-0.504,4.632,-0.6506000000000001,-0.3749,0.36660000000000004,-0.007,0.013000000000000001,-0.057
1670356125.359992,-9.293000000000001,-0.498,4.636,-0.6527000000000001,-0.3773,0.3826,-0.005,0.022,-0.057
1670356125.399992,-9.292,-0.507,4.66,-0.6535000000000001,-0.3773,0.39130000000000004,-0.004,0.019,-0.055
1670356125.439992,-9.263,-0.502,4.663,-0.6582,-0.38220000000000004,0.3809,0.001,0.016,-0.058
1670356125.479992,-9.279,-0.513,4.689,-0.6535000000000001,-0.37610000000000005,0.37170000000000003,-0.001,0.014,-0.046
1670356125.5199919,-9.279,-0.491,4.647,-0.6503,-0.3755,0.3781,0.003,0.015,-0.053
1670356125.559992,-9.324,-0.49,4.616,-0.6479,-0.37560000000000004,0.3788,0.012,0.021,-0.051000000000000004
1670356125.599992,-9.276,-0.496,4.632,-0.6485000000000001,-0.3766,0.3794,0.01,0.024,-0.054
1670356125.639992,-9.256,-0.511,4.666,-0.6494,-0.3759,0.3806,0.001,0.023,-0.055
1670356125.679992,-9.266,-0.512,4.68,-0.6494,-0.3794,0.3805,-0.011,0.022,-0.046
1670356125.719992,-9.303,-0.484,4.659,-0.6488,-0.37510000000000004,0.37770000000000004,0.0,0.03,-0.044
1670356125.759992,-9.304,-0.55,4.636,-0.6476000000000001,-0.3765,0.3779,0.007,0.026000000000000002,-0.053
1670356125.799992,-9.228,-0.466,4.622,-0.6485000000000001,-0.3745,0.3774,0.008,0.014,-0.055
1670356125.839992,-9.290000000000001,-0.483,4.632,-0.6478,-0.3735,0.3781,0.006,0.021,-0.047
1670356125.879992,-9.321,-0.498,4.624,-0.6505000000000001,-0.37670000000000003,0.3765,0.015,0.011,-0.054
1670356125.919992,-9.317,-0.505,4.634,-0.6494,-0.3739,0.37970000000000004,0.017,0.016,-0.055
1670356125.959991,-9.275,-0.562,4.639,-0.6483,-0.37620000000000003,0.3785,0.001,0.018000000000000002,-0.053
1670356125.999991,-9.279,-0.436,4.715,-0.6493,-0.3754,0.3775,0.013000000000000001,0.022,-0.048
1670356126.039991,-9.31,-0.552,4.621,-0.6487,-0.37570000000000003,0.38070000000000004,0.013000000000000001,0.025,-0.051000000000000004
1670356126.0799909,-9.305,-0.483,4.598,-0.6501,-0.3764,0.38020000000000004,0.003,0.032,-0.044
1670356126.119991,-9.269,-0.507,4.663,-0.65,-0.3776,0.37870000000000004,-0.004,0.018000000000000002,-0.04
1670356126.159991,-9.302,-0.47200000000000003,4.6370000000000005,-0.6472,-0.37670000000000003,0.37870000000000004,0.008,0.016,-0.057
1670356126.199991,-9.318,-0.466,4.607,-0.6489,-0.37570000000000003,0.378,0.016,0.016,-0.064
1670356126.239991,-9.302,-0.529,4.597,-0.6511,-0.3745,0.3785,0.007,0.02,-0.05
1670356126.279991,-9.309000000000001,-0.518,4.618,-0.6496000000000001,-0.3794,0.38,-0.004,0.014,-0.044
1670356126.3199909,-9.291,-0.48,4.662,-0.6478,-0.3753,0.377,0.004,0.022,-0.054
1670356126.359991,-9.287,-0.47700000000000004,4.627,-0.6495000000000001,-0.37620000000000003,0.3776,0.014,0.017,-0.055
1670356126.399991,-9.282,-0.515,4.64,-0.6508,-0.37610000000000005,0.38020000000000004,0.009000000000000001,0.023,-0.051000000000000004
1670356126.439991,-9.284,-0.501,4.658,-0.6479,-0.3765,0.3805,0.006,0.013000000000000001,-0.045
1670356126.479991,-9.290000000000001,-0.486,4.642,-0.6516000000000001,-0.3799,0.381,0.001,0.017,-0.041
1670356126.519991,-9.3,-0.481,4.639,-0.6478,-0.3773,0.3778,0.006,0.02,-0.048
1670356126.559991,-9.290000000000001,-0.48,4.6370000000000005,-0.6472,-0.37560000000000004,0.3778,0.01,0.029,-0.051000000000000004
1670356126.599991,-9.306000000000001,-0.47200000000000003,4.622,-0.648,-0.3766,0.3791,0.019,0.03,-0.053
1670356126.639991,-9.295,-0.499,4.619,-0.646,-0.3791,0.3801,0.008,0.025,-0.054
1670356126.679991,-9.290000000000001,-0.501,4.633,-0.6482,-0.3773,0.3775,-0.001,0.024,-0.05
1670356126.719991,-9.292,-0.5,4.587,-0.6493,-0.37520000000000003,0.3798,-0.003,0.021,-0.042
1670356126.759991,-9.391,-0.423,4.636,-0.6451,-0.3764,0.3769,0.007,0.014,-0.044
1670356126.799991,-9.284,-0.46,4.578,-0.6452,-0.3745,0.3788,0.01,0.023,-0.061
1670356126.839991,-9.267,-0.532,4.621,-0.6503,-0.3781,0.377,0.01,0.023,-0.05
1670356126.879991,-9.317,-0.451,4.594,-0.6491,-0.37620000000000003,0.3764,-0.002,0.015,-0.046
1670356126.919991,-9.329,-0.452,4.6450000000000005,-0.6457,-0.3769,0.3801,0.003,0.018000000000000002,-0.05
1670356126.959991,-9.304,-0.482,4.663,-0.6492,-0.38070000000000004,0.379,0.009000000000000001,0.013000000000000001,-0.059000000000000004
1670356126.99999,-9.294,-0.529,4.607,-0.6488,-0.37420000000000003,0.3781,0.0,0.009000000000000001,-0.059000000000000004
1670356127.03999,-9.315,-0.41400000000000003,4.689,-0.6455000000000001,-0.3739,0.3768,0.007,0.017,-0.051000000000000004
1670356127.07999,-9.32,-0.47800000000000004,4.6000000000000005,-0.6468,-0.37620000000000003,0.3803,0.013000000000000001,0.017,-0.05
1670356127.1199899,-9.306000000000001,-0.514,4.5840000000000005,-0.6471,-0.3776,0.3765,0.01,0.026000000000000002,-0.048
1670356127.15999,-9.26,-0.464,4.602,-0.6457,-0.3748,0.378,0.002,0.021,-0.044
1670356127.19999,-9.307,-0.433,4.625,-0.6472,-0.37670000000000003,0.3799,0.007,0.018000000000000002,-0.045
1670356127.23999,-9.31,-0.47000000000000003,4.663,-0.6478,-0.37560000000000004,0.3794,0.013000000000000001,0.01,-0.057
1670356127.27999,-9.302,-0.5,4.612,-0.6492,-0.37870000000000004,0.38230000000000003,0.007,0.011,-0.055
1670356127.31999,-9.304,-0.49,4.612,-0.6497,-0.3763,0.37920000000000004,-0.007,0.008,-0.049
1670356127.35999,-9.293000000000001,-0.456,4.646,-0.6481,-0.3783,0.3776,-0.005,0.012,-0.05
1670356127.39999,-9.309000000000001,-0.463,4.649,-0.6492,-0.379,0.3902,0.006,0.015,-0.047
1670356127.43999,-9.283,-0.499,4.647,-0.6488,-0.3779,0.3796,0.012,0.015,-0.055
1670356127.47999,-9.28,-0.483,4.64,-0.6498,-0.378,0.3885,0.006,0.013000000000000001,-0.055
1670356127.51999,-9.272,-0.492,4.667,-0.6493,-0.3776,0.39990000000000003,0.004,0.008,-0.048
1670356127.55999,-9.272,-0.47900000000000004,4.655,-0.6493,-0.3768,0.3864,0.009000000000000001,0.016,-0.05
1670356127.59999,-9.282,-0.47900000000000004,4.655,-0.6516000000000001,-0.3768,0.3864,0.019,0.02,-0.046
1670356127.63999,-9.315,-0.47000000000000003,4.648,-0.6516000000000001,-0.3789,0.4035,0.01,0.025,-0.049
1670356127.67999,-9.279,-0.5,4.628,-0.6498,-0.3776,0.3688,0.002,0.018000000000000002,-0.044
1670356127.71999,-9.265,-0.488,4.649,-0.6492,-0.3769,0.38620000000000004,-0.006,0.015,-0.054
1670356127.75999,-9.308,-0.49,4.624,-0.6487,-0.3749,0.3684,0.007,0.008,-0.041
1670356127.79999,-9.355,-0.39,4.657,-0.6476000000000001,-0.38,0.3799,0.011,0.022,-0.065
1670356127.83999,-9.288,-0.47700000000000004,4.575,-0.6467,-0.3763,0.38070000000000004,0.001,0.023,-0.059000000000000004
1670356127.87999,-9.236,-0.512,4.555,-0.6496000000000001,-0.3758,0.38,-0.01,0.014,-0.035
1670356127.91999,-9.305,-0.46,4.618,-0.648,-0.3763,0.3784,-0.002,0.007,-0.052000000000000005
1670356127.95999,-9.308,-0.451,4.662,-0.6481,-0.37670000000000003,0.3805,0.002,0.013000000000000001,-0.058
1670356127.99999,-9.291,-0.491,4.651,-0.6485000000000001,-0.376,0.3796,-0.004,0.015,-0.061
1670356128.039989,-9.284,-0.556,4.659,-0.6479,-0.3759,0.37770000000000004,-0.008,0.006,-0.048
1670356128.079989,-9.291,-0.406,4.665,-0.6489,-0.3758,0.3805,0.0,0.021,-0.053
1670356128.119989,-9.33,-0.498,4.627,-0.6508,-0.3759,0.3798,0.008,0.027,-0.054
1670356128.1599889,-9.276,-0.51,4.638,-0.6621,-0.38120000000000004,0.3775,0.0,0.019,-0.038
1670356128.199989,-9.278,-0.481,4.648,-0.6474000000000001,-0.37460000000000004,0.3795,0.007,0.016,-0.042
1670356128.239989,-9.284,-0.43,4.632,-0.6496000000000001,-0.3799,0.3811,0.016,0.009000000000000001,-0.051000000000000004
1670356128.279989,-9.281,-0.496,4.639,-0.6499,-0.3779,0.3769,0.009000000000000001,0.006,-0.061
1670356128.319989,-9.283,-0.535,4.603,-0.6488,-0.3744,0.3799,0.002,0.014,-0.048
1670356128.359989,-9.292,-0.505,4.6450000000000005,-0.6479,-0.37720000000000004,0.3788,-0.003,0.014,-0.05
1670356128.399989,-9.276,-0.47300000000000003,4.6290000000000004,-0.6488,-0.3815,0.3824,0.001,0.02,-0.055
1670356128.439989,-9.299,-0.47700000000000004,4.682,-0.65,-0.3753,0.3798,0.003,0.016,-0.058
1670356128.479989,-9.269,-0.493,4.663,-0.6509,-0.3774,0.3834,0.0,0.016,-0.055
1670356128.519989,-9.282,-0.484,4.678,-0.6511,-0.37610000000000005,0.3781,0.001,0.016,-0.053
1670356128.559989,-9.282,-0.495,4.689,-0.6525000000000001,-0.3784,0.3765,-0.001,0.019,-0.054
1670356128.599989,-9.28,-0.501,4.642,-0.6493,-0.3728,0.3809,0.002,0.021,-0.05
1670356128.639989,-9.265,-0.505,4.654,-0.6508,-0.37620000000000003,0.3796,0.002,0.017,-0.056
1670356128.679989,-9.257,-0.514,4.646,-0.6489,-0.3783,0.3781,-0.006,0.022,-0.055
1670356128.719989,-9.341000000000001,-0.516,4.654,-0.6474000000000001,-0.3755,0.37620000000000003,-0.003,0.027,-0.039
1670356128.759989,-9.34,-0.46900000000000003,4.665,-0.6484,-0.3785,0.3795,0.002,0.037,-0.046
1670356128.799989,-9.232,-0.47700000000000004,4.657,-0.6489,-0.378,0.37920000000000004,0.014,0.034,-0.055
1670356128.839989,-9.251,-0.493,4.563,-0.647,-0.37260000000000004,0.37670000000000003,0.006,0.022,-0.046
1670356128.879989,-9.319,-0.491,4.613,-0.6496000000000001,-0.3753,0.379,0.007,0.017,-0.046
1670356128.919989,-9.303,-0.468,4.666,-0.6493,-0.37560000000000004,0.3774,0.009000000000000001,0.017,-0.049
1670356128.959989,-9.238,-0.495,4.6450000000000005,-0.6465000000000001,-0.3754,0.3795,0.009000000000000001,0.014,-0.053
1670356128.999989,-9.233,-0.499,4.635,-0.6478,-0.378,0.37970000000000004,0.002,0.015,-0.044
1670356129.039989,-9.325000000000001,-0.514,4.611,-0.6469,-0.3771,0.3776,0.006,0.028,-0.049
1670356129.079988,-9.32,-0.444,4.633,-0.6488,-0.37520000000000003,0.3766,0.007,0.036000000000000004,-0.053
1670356129.119988,-9.24,-0.504,4.622,-0.6507000000000001,-0.3771,0.38120000000000004,0.002,0.027,-0.049
1670356129.159988,-9.273,-0.47200000000000003,4.624,-0.6491,-0.3779,0.3773,-0.001,0.019,-0.043000000000000003
1670356129.199988,-9.302,-0.442,4.581,-0.6491,-0.3776,0.38130000000000003,0.007,0.012,-0.058
1670356129.239988,-9.287,-0.505,4.599,-0.6458,-0.3778,0.38070000000000004,0.004,0.007,-0.063
1670356129.279988,-9.282,-0.518,4.595,-0.6488,-0.37820000000000004,0.3786,-0.004,0.016,-0.052000000000000005
1670356129.319988,-9.290000000000001,-0.487,4.607,-0.6494,-0.378,0.3781,-0.003,0.02,-0.05
1670356129.359988,-9.297,-0.49,4.6370000000000005,-0.6465000000000001,-0.37620000000000003,0.3768,0.004,0.023,-0.053
1670356129.399988,-9.31,-0.497,4.644,-0.6534,-0.376,0.37870000000000004,0.01,0.023,-0.056
1670356129.439988,-9.303,-0.49,4.655,-0.6471,-0.37720000000000004,0.3788,0.012,0.01,-0.048
1670356129.479988,-9.315,-0.495,4.618,-0.6466000000000001,-0.37560000000000004,0.3798,0.012,0.014,-0.052000000000000005
1670356129.519988,-9.297,-0.486,4.622,-0.6488,-0.3766,0.3775,0.017,0.019,-0.057
1670356129.559988,-9.286,-0.493,4.625,-0.6474000000000001,-0.37870000000000004,0.3841,0.015,0.018000000000000002,-0.046
1670356129.599988,-9.267,-0.492,4.648,-0.6474000000000001,-0.3748,0.3791,0.003,0.022,-0.046
1670356129.639988,-9.299,-0.47700000000000004,4.612,-0.646,-0.3769,0.3778,0.002,0.03,-0.04
1670356129.679988,-9.349,-0.487,4.621,-0.6476000000000001,-0.377,0.3766,0.015,0.031,-0.042
1670356129.719988,-9.282,-0.438,4.577,-0.6468,-0.37870000000000004,0.3778,0.016,0.033,-0.05
1670356129.759988,-9.288,-0.466,4.579,-0.6468,-0.37720000000000004,0.3643,-0.001,0.027,-0.048
1670356129.799988,-9.342,-0.452,4.581,-0.6468,-0.38020000000000004,0.39690000000000003,0.002,0.019,-0.046
1670356129.839988,-9.342,-0.452,4.62,-0.6496000000000001,-0.38020000000000004,0.3971,0.028,0.02,-0.057
1670356129.879988,-9.296,-0.405,4.62,-0.6483,-0.3786,0.3971,0.053,0.018000000000000002,-0.06
1670356129.919988,-9.299,-0.47100000000000003,4.633,-0.6481,-0.3778,0.3831,0.054,0.012,-0.06
1670356129.959988,-9.251,-0.52,4.603,-0.6486000000000001,-0.3793,0.3779,0.051000000000000004,0.011,-0.03
1670356129.999988,-9.339,-0.496,4.586,-0.6513,-0.3805,0.3589,0.042,0.014,-0.032
1670356130.039988,-9.335,-0.396,4.63,-0.6475000000000001,-0.38130000000000003,0.3775,0.033,0.023,-0.039
1670356130.079988,-9.269,-0.425,4.572,-0.6463,-0.3819,0.3819,0.02,0.018000000000000002,-0.03
1670356130.119987,-9.290000000000001,-0.373,4.598,-0.6461,-0.3783,0.3794,0.017,0.008,-0.045
1670356130.159987,-9.321,-0.367,4.624,-0.6491,-0.3794,0.3776,0.016,0.017,-0.058
1670356130.199987,-9.332,-0.423,4.632,-0.6499,-0.383,0.3776,-0.001,0.02,-0.058
1670356130.239987,-9.32,-0.40900000000000003,4.605,-0.6469,-0.3805,0.38220000000000004,-0.023,0.022,-0.047
1670356130.279987,-9.309000000000001,-0.389,4.61,-0.6485000000000001,-0.37970000000000004,0.37970000000000004,-0.019,0.029,-0.05
1670356130.319987,-9.317,-0.387,4.615,-0.6573,-0.3825,0.3874,-0.001,0.023,-0.061
1670356130.359987,-9.291,-0.41400000000000003,4.591,-0.6453,-0.3781,0.37970000000000004,-0.006,0.026000000000000002,-0.06
1670356130.399987,-9.321,-0.431,4.603,-0.6584,-0.38370000000000004,0.38120000000000004,0.004,0.021,-0.057
1670356130.439987,-9.294,-0.41500000000000004,4.596,-0.6469,-0.3811,0.3816,0.005,0.014,-0.06
1670356130.479987,-9.301,-0.419,4.57,-0.6499,-0.3825,0.38120000000000004,0.001,0.008,-0.044
1670356130.519987,-9.339,-0.487,4.6080000000000005,-0.6473,-0.3784,0.3781,0.0,0.01,-0.044
1670356130.559987,-9.321,-0.402,4.605,-0.6474000000000001,-0.3796,0.3776,0.009000000000000001,0.007,-0.052000000000000005
1670356130.599987,-9.278,-0.422,4.625,-0.6489,-0.37870000000000004,0.3806,0.011,0.008,-0.052000000000000005
1670356130.639987,-9.297,-0.4,4.618,-0.6441,-0.3789,0.3836,0.012,0.009000000000000001,-0.043000000000000003
1670356130.679987,-9.343,-0.462,4.609,-0.6457,-0.3805,0.3805,0.02,0.016,-0.053
1670356130.719987,-9.27,-0.377,4.607,-0.6479,-0.379,0.3789,0.009000000000000001,0.025,-0.052000000000000005
1670356130.759987,-9.275,-0.432,4.582,-0.6461,-0.37920000000000004,0.38020000000000004,0.0,0.018000000000000002,-0.05
1670356130.799987,-9.304,-0.41100000000000003,4.601,-0.6494,-0.3809,0.37870000000000004,-0.005,0.014,-0.056
1670356130.839987,-9.333,-0.42,4.614,-0.6463,-0.3811,0.37920000000000004,0.004,0.007,-0.062
1670356130.879987,-9.299,-0.423,4.63,-0.6484,-0.3799,0.3793,-0.006,0.014,-0.066
1670356130.919987,-9.269,-0.424,4.6450000000000005,-0.6484,-0.3783,0.38130000000000003,-0.005,0.007,-0.053
1670356130.959987,-9.34,-0.458,4.5920000000000005,-0.6458,-0.3814,0.38280000000000003,0.002,0.02,-0.049
1670356130.999987,-9.288,-0.395,4.62,-0.6461,-0.3805,0.3816,0.01,0.024,-0.056
1670356131.0399868,-9.273,-0.438,4.6370000000000005,-0.6486000000000001,-0.3789,0.3814,0.007,0.011,-0.044
1670356131.079987,-9.276,-0.40900000000000003,4.615,-0.6483,-0.3805,0.3799,0.006,0.013000000000000001,-0.044
1670356131.119987,-9.318,-0.387,4.613,-0.6469,-0.3805,0.3801,0.009000000000000001,0.005,-0.056
1670356131.159986,-9.329,-0.437,4.621,-0.6469,-0.3808,0.3811,0.008,0.011,-0.06
1670356131.199986,-9.306000000000001,-0.468,4.607,-0.6474000000000001,-0.381,0.3805,-0.012,0.01,-0.047
1670356131.239986,-9.291,-0.431,4.648,-0.6474000000000001,-0.3798,0.3809,-0.017,0.016,-0.048
1670356131.279986,-9.296,-0.41500000000000004,4.642,-0.6463,-0.3809,0.3826,-0.004,0.019,-0.058
1670356131.319986,-9.271,-0.424,4.6290000000000004,-0.6483,-0.3775,0.38120000000000004,0.01,0.018000000000000002,-0.054
1670356131.359986,-9.279,-0.456,4.652,-0.6467,-0.3789,0.38370000000000004,0.009000000000000001,0.016,-0.049
1670356131.399986,-9.281,-0.441,4.656,-0.6521,-0.3793,0.3814,0.007,0.013000000000000001,-0.051000000000000004
1670356131.439986,-9.291,-0.442,4.649,-0.6524,-0.379,0.3803,0.001,0.014,-0.053
1670356131.479986,-9.317,-0.396,4.663,-0.6479,-0.3789,0.3798,0.01,0.01,-0.052000000000000005
1670356131.519986,-9.304,-0.429,4.625,-0.6472,-0.3801,0.38230000000000003,0.005,0.021,-0.051000000000000004
1670356131.559986,-9.312,-0.454,4.643,-0.6465000000000001,-0.3795,0.38420000000000004,0.004,0.021,-0.053
1670356131.599986,-9.297,-0.452,4.67,-0.648,-0.37870000000000004,0.3801,0.0,0.018000000000000002,-0.049
1670356131.639986,-9.382,-0.34500000000000003,4.697,-0.6469,-0.3776,0.3805,-0.004,0.013000000000000001,-0.038
1670356131.679986,-9.302,-0.47200000000000003,4.594,-0.6469,-0.3789,0.3794,0.004,0.027,-0.06
1670356131.719986,-9.259,-0.421,4.603,-0.6472,-0.38,0.3799,0.003,0.027,-0.062
1670356131.759986,-9.291,-0.439,4.6080000000000005,-0.6474000000000001,-0.3783,0.38120000000000004,-0.016,0.016,-0.05
1670356131.799986,-9.315,-0.424,4.659,-0.6463,-0.3811,0.38230000000000003,-0.008,0.012,-0.044
1670356131.8399858,-9.323,-0.442,4.641,-0.6469,-0.38,0.38,0.004,0.005,-0.062
1670356131.879986,-9.282,-0.502,4.628,-0.6451,-0.37670000000000003,0.38270000000000004,0.003,0.012,-0.061
1670356131.919986,-9.284,-0.375,4.6610000000000005,-0.648,-0.3781,0.383,0.003,0.004,-0.05
1670356131.959986,-9.306000000000001,-0.47100000000000003,4.666,-0.6447,-0.37920000000000004,0.38270000000000004,0.01,0.012,-0.046
1670356131.999986,-9.290000000000001,-0.448,4.643,-0.6486000000000001,-0.3778,0.38320000000000004,0.021,0.024,-0.051000000000000004
1670356132.039986,-9.262,-0.403,4.616,-0.6473,-0.3805,0.38470000000000004,0.01,0.018000000000000002,-0.041
1670356132.0799859,-9.262,-0.4,4.656,-0.6473,-0.3795,0.38820000000000005,0.014,0.007,-0.043000000000000003
1670356132.119986,-9.293000000000001,-0.4,4.657,-0.648,-0.3795,0.3869,0.017,0.008,-0.055
1670356132.159986,-9.292,-0.445,4.657,-0.6543,-0.379,0.3869,0.007,0.012,-0.059000000000000004
1670356132.199986,-9.275,-0.457,4.66,-0.6487,-0.3781,0.3775,-0.013000000000000001,0.016,-0.048
1670356132.239986,-9.282,-0.424,4.627,-0.6495000000000001,-0.3808,0.3929,-0.013000000000000001,0.022,-0.05
1670356132.279985,-9.311,-0.404,4.66,-0.6491,-0.3809,0.3775,-0.001,0.017,-0.06
1670356132.319985,-9.297,-0.44,4.675,-0.6557000000000001,-0.3829,0.3929,-0.003,0.022,-0.053
1670356132.359985,-9.278,-0.457,4.627,-0.6462,-0.3738,0.37870000000000004,-0.009000000000000001,0.014,-0.055
1670356132.399985,-9.263,-0.447,4.657,-0.6604,-0.37970000000000004,0.3821,0.0,0.013000000000000001,-0.054
1670356132.439985,-9.282,-0.444,4.659,-0.6482,-0.37870000000000004,0.3801,0.008,0.018000000000000002,-0.055
1670356132.479985,-9.284,-0.445,4.655,-0.6494,-0.3804,0.38020000000000004,0.004,0.02,-0.054
1670356132.519985,-9.265,-0.444,4.668,-0.6455000000000001,-0.3789,0.3826,0.0,0.02,-0.054
1670356132.559985,-9.235,-0.462,4.673,-0.6443,-0.3786,0.3824,0.0,0.018000000000000002,-0.053
1670356132.599985,-9.317,-0.46,4.634,-0.6471,-0.377,0.3821,0.008,0.023,-0.043000000000000003
1670356132.6399848,-9.349,-0.401,4.636,-0.6502,-0.378,0.3798,0.005,0.034,-0.054
1670356132.679985,-9.244,-0.418,4.643,-0.6493,-0.3808,0.3806,-0.001,0.024,-0.062
1670356132.719985,-9.267,-0.46,4.622,-0.6448,-0.3798,0.3786,-0.004,0.018000000000000002,-0.044
1670356132.759985,-9.304,-0.435,4.642,-0.6443,-0.3775,0.381,0.008,0.014,-0.054
1670356132.799985,-9.290000000000001,-0.423,4.7010000000000005,-0.6452,-0.37870000000000004,0.37970000000000004,0.005,0.018000000000000002,-0.063
1670356132.839985,-9.245000000000001,-0.495,4.652,-0.6471,-0.37720000000000004,0.383,-0.007,0.016,-0.05
1670356132.8799849,-9.236,-0.445,4.6290000000000004,-0.6482,-0.37920000000000004,0.3789,0.006,0.008,-0.047
1670356132.919985,-9.313,-0.46,4.64,-0.6467,-0.3789,0.38,0.008,0.031,-0.059000000000000004
1670356132.959985,-9.299,-0.429,4.64,-0.646,-0.378,0.3809,0.007,0.034,-0.058
1670356132.999985,-9.242,-0.46900000000000003,4.656,-0.6487,-0.3781,0.3805,0.002,0.018000000000000002,-0.044
1670356133.039985,-9.276,-0.438,4.655,-0.6476000000000001,-0.3771,0.3816,0.01,0.004,-0.046
1670356133.079985,-9.314,-0.41300000000000003,4.6370000000000005,-0.649,-0.37970000000000004,0.3806,0.02,0.004,-0.063
1670356133.1199849,-9.297,-0.484,4.613,-0.6483,-0.3791,0.38230000000000003,0.009000000000000001,0.012,-0.055
1670356133.159985,-9.275,-0.468,4.67,-0.6494,-0.3776,0.38120000000000004,-0.004,0.013000000000000001,-0.048
1670356133.199985,-9.276,-0.453,4.6690000000000005,-0.6476000000000001,-0.37620000000000003,0.38120000000000004,0.005,0.014,-0.05
1670356133.239985,-9.293000000000001,-0.429,4.664,-0.6469,-0.38070000000000004,0.3805,0.01,0.026000000000000002,-0.054
1670356133.279985,-9.272,-0.455,4.657,-0.6456000000000001,-0.3786,0.3788,0.01,0.019,-0.055
1670356133.319984,-9.261000000000001,-0.47700000000000004,4.66,-0.6476000000000001,-0.3808,0.3803,0.003,0.015,-0.049
1670356133.359984,-9.275,-0.428,4.65,-0.6496000000000001,-0.3795,0.3811,0.0,0.017,-0.044
1670356133.399984,-9.31,-0.424,4.627,-0.649,-0.3783,0.383,0.013000000000000001,0.02,-0.052000000000000005
1670356133.4399838,-9.266,-0.46,4.642,-0.6521,-0.3806,0.38170000000000004,0.009000000000000001,0.021,-0.052000000000000005
1670356133.479984,-9.309000000000001,-0.481,4.658,-0.6475000000000001,-0.3794,0.378,0.002,0.018000000000000002,-0.046
1670356133.519984,-9.295,-0.444,4.648,-0.6486000000000001,-0.37920000000000004,0.37510000000000004,0.0,0.016,-0.047
1670356133.559984,-9.317,-0.362,4.646,-0.6506000000000001,-0.3798,0.3805,0.012,0.008,-0.04
1670356133.599984,-9.296,-0.518,4.618,-0.6478,-0.37970000000000004,0.3815,0.013000000000000001,0.027,-0.054
1670356133.639984,-9.259,-0.41600000000000004,4.625,-0.6479,-0.37920000000000004,0.3794,0.004,0.022,-0.054
1670356133.6799839,-9.273,-0.422,4.595,-0.6476000000000001,-0.37970000000000004,0.3808,-0.003,0.017,-0.044
1670356133.719984,-9.305,-0.423,4.694,-0.648,-0.3786,0.3801,0.006,0.014,-0.054
1670356133.759984,-9.318,-0.439,4.643,-0.6474000000000001,-0.3794,0.38130000000000003,0.009000000000000001,0.015,-0.055
1670356133.799984,-9.293000000000001,-0.48,4.643,-0.6472,-0.3794,0.3816,-0.002,0.023,-0.053
1670356133.839984,-9.264,-0.396,4.694,-0.6481,-0.3798,0.38120000000000004,-0.005,0.019,-0.052000000000000005
1670356133.879984,-9.298,-0.504,4.623,-0.6465000000000001,-0.38,0.3795,0.002,0.027,-0.046
1670356133.9199839,-9.306000000000001,-0.426,4.5840000000000005,-0.6456000000000001,-0.3778,0.3793,0.013000000000000001,0.032,-0.05
1670356133.959984,-9.26,-0.439,4.634,-0.6465000000000001,-0.3798,0.38270000000000004,0.0,0.027,-0.041
1670356133.999984,-9.277000000000001,-0.397,4.647,-0.6483,-0.3795,0.3794,0.007,0.018000000000000002,-0.042
1670356134.039984,-9.297,-0.417,4.596,-0.6479,-0.37870000000000004,0.38170000000000004,0.015,0.015,-0.052000000000000005
1670356134.079984,-9.301,-0.47700000000000004,4.627,-0.6483,-0.3798,0.3811,0.014,0.016,-0.059000000000000004
1670356134.119984,-9.315,-0.434,4.614,-0.6514,-0.3781,0.3776,-0.001,0.013000000000000001,-0.047
1670356134.1599839,-9.309000000000001,-0.41000000000000003,4.61,-0.6458,-0.3796,0.3825,-0.01,0.027,-0.041
1670356134.199984,-9.272,-0.366,4.683,-0.6466000000000001,-0.37720000000000004,0.3783,0.013000000000000001,0.003,-0.055
1670356134.239984,-9.322000000000001,-0.38,4.6000000000000005,-0.6461,-0.3816,0.382,0.067,-0.011,-0.092
1670356134.279984,-9.314,-0.456,4.63,-0.6611,-0.38580000000000003,0.39680000000000004,0.081,-0.002,-0.08700000000000001
1670356134.319984,-9.272,-0.47000000000000003,4.676,-0.6473,-0.38330000000000003,0.37420000000000003,0.054,-0.01,-0.056
1670356134.359983,-9.272,-0.47000000000000003,4.674,-0.6473,-0.38330000000000003,0.37570000000000003,0.019,0.002,-0.032
1670356134.399983,-9.286,-0.405,4.674,-0.648,-0.38470000000000004,0.37570000000000003,0.024,0.008,-0.041
1670356134.439983,-9.294,-0.34400000000000003,4.705,-0.649,-0.379,0.3874,0.016,0.019,-0.046
1670356134.4799829,-9.263,-0.375,4.691,-0.6469,-0.38370000000000004,0.3775,0.008,0.025,-0.051000000000000004
1670356134.519983,-9.286,-0.392,4.676,-0.6511,-0.38280000000000003,0.37010000000000004,-0.006,0.031,-0.05
1670356134.559983,-9.263,-0.365,4.674,-0.6484,-0.38230000000000003,0.38170000000000004,-0.005,0.03,-0.056
1670356134.599983,-9.239,-0.393,4.611,-0.6437,-0.38,0.385,-0.014,0.014,-0.062
1670356134.639983,-9.238,-0.40700000000000003,4.688,-0.6468,-0.38070000000000004,0.383,0.005,-0.001,-0.058
1670356134.679983,-9.363,-0.311,4.67,-0.6479,-0.3819,0.38220000000000004,0.016,0.018000000000000002,-0.07100000000000001
1670356134.7199829,-9.287,-0.402,4.607,-0.6469,-0.3801,0.3826,0.011,0.02,-0.056
1670356134.759983,-9.248,-0.47200000000000003,4.607,-0.6471,-0.3816,0.38520000000000004,-0.013000000000000001,0.012,-0.037
1670356134.799983,-9.281,-0.386,4.663,-0.6477,-0.3809,0.3809,-0.007,0.015,-0.048
1670356134.839983,-9.305,-0.388,4.686,-0.647,-0.38330000000000003,0.3801,0.004,0.013000000000000001,-0.06
1670356134.879983,-9.304,-0.42,4.704,-0.649,-0.3801,0.3805,-0.002,0.014,-0.055
1670356134.919983,-9.275,-0.456,4.691,-0.6485000000000001,-0.38220000000000004,0.383,-0.013000000000000001,0.013000000000000001,-0.046
1670356134.9599829,-9.311,-0.325,4.708,-0.651,-0.3824,0.38270000000000004,-0.005,0.019,-0.051000000000000004
1670356134.999983,-9.306000000000001,-0.389,4.6690000000000005,-0.6478,-0.38070000000000004,0.38320000000000004,0.007,0.031,-0.06
1670356135.039983,-9.269,-0.443,4.648,-0.6461,-0.38020000000000004,0.3825,-0.001,0.033,-0.047
1670356135.079983,-9.269,-0.394,4.639,-0.6465000000000001,-0.3811,0.3815,-0.007,0.029,-0.048
1670356135.119983,-9.288,-0.365,4.63,-0.6504,-0.3808,0.3851,0.006,0.016,-0.06
1670356135.159983,-9.306000000000001,-0.406,4.643,-0.6455000000000001,-0.3814,0.38020000000000004,0.001,0.015,-0.069
1670356135.199983,-9.288,-0.439,4.625,-0.6475000000000001,-0.3805,0.3829,-0.006,0.009000000000000001,-0.05
1670356135.239983,-9.266,-0.444,4.666,-0.6476000000000001,-0.38130000000000003,0.38220000000000004,-0.013000000000000001,0.011,-0.048
1670356135.279983,-9.290000000000001,-0.402,4.652,-0.6488,-0.38,0.38070000000000004,0.001,0.007,-0.056
1670356135.319983,-9.293000000000001,-0.403,4.64,-0.6458,-0.3825,0.381,0.007,0.01,-0.051000000000000004
1670356135.359983,-9.269,-0.438,4.682,-0.6452,-0.3768,0.3829,0.015,0.01,-0.056
1670356135.399982,-9.267,-0.441,4.667,-0.6484,-0.3789,0.38120000000000004,0.007,0.012,-0.038
1670356135.439982,-9.285,-0.406,4.651,-0.648,-0.3789,0.3844,0.002,0.015,-0.044
1670356135.479982,-9.284,-0.444,4.657,-0.6488,-0.3794,0.3886,0.002,0.021,-0.049
1670356135.5199819,-9.281,-0.419,4.673,-0.6511,-0.3819,0.38430000000000003,0.003,0.019,-0.054
1670356135.559982,-9.252,-0.40800000000000003,4.642,-0.6472,-0.3805,0.3814,0.002,0.022,-0.051000000000000004
1670356135.599982,-9.227,-0.421,4.634,-0.6476000000000001,-0.3788,0.384,-0.003,0.018000000000000002,-0.053
1670356135.639982,-9.276,-0.433,4.663,-0.6485000000000001,-0.3815,0.3811,0.0,0.017,-0.051000000000000004
1670356135.679982,-9.332,-0.381,4.648,-0.6491,-0.3778,0.3831,0.012,0.023,-0.055
1670356135.719982,-9.248,-0.41500000000000004,4.63,-0.6471,-0.3814,0.38280000000000003,0.01,0.014,-0.056
1670356135.7599819,-9.233,-0.438,4.634,-0.6476000000000001,-0.38020000000000004,0.3811,-0.002,0.014,-0.047
1670356135.799982,-9.262,-0.41000000000000003,4.644,-0.6461,-0.38170000000000004,0.3808,0.001,0.007,-0.05
1670356135.839982,-9.264,-0.41400000000000003,4.691,-0.649,-0.3789,0.3825,0.016,0.008,-0.056
1670356135.879982,-9.298,-0.442,4.7250000000000005,-0.6458,-0.38320000000000004,0.3834,0.0,0.003,-0.059000000000000004
1670356135.919982,-9.264,-0.48,4.673,-0.6494,-0.3808,0.38270000000000004,-0.009000000000000001,0.016,-0.053
1670356135.959982,-9.3,-0.393,4.715,-0.65,-0.3781,0.38470000000000004,0.003,0.014,-0.049
1670356135.9999819,-9.307,-0.40800000000000003,4.706,-0.6462,-0.3791,0.385,0.006,0.022,-0.049
1670356136.039982,-9.221,-0.453,4.703,-0.6492,-0.37920000000000004,0.3834,0.009000000000000001,0.021,-0.044
1670356136.079982,-9.254,-0.422,4.689,-0.6476000000000001,-0.3781,0.3825,0.006,0.012,-0.047
1670356136.119982,-9.293000000000001,-0.394,4.676,-0.6499,-0.378,0.38380000000000003,0.014,0.01,-0.051000000000000004
1670356136.159982,-9.252,-0.434,4.672,-0.6462,-0.3805,0.3816,0.013000000000000001,0.009000000000000001,-0.055
1670356136.199982,-9.25,-0.47000000000000003,4.692,-0.6479,-0.378,0.3803,0.004,0.014,-0.051000000000000004
1670356136.239982,-9.285,-0.434,4.67,-0.6497,-0.378,0.383,-0.003,0.01,-0.046
1670356136.279982,-9.257,-0.41300000000000003,4.708,-0.6473,-0.3809,0.382,0.0,0.023,-0.053
1670356136.319982,-9.278,-0.433,4.6690000000000005,-0.6494,-0.37770000000000004,0.3808,0.004,0.026000000000000002,-0.058
1670356136.359982,-9.235,-0.459,4.695,-0.6493,-0.3805,0.3839,0.005,0.023,-0.054
1670356136.399982,-9.245000000000001,-0.457,4.696,-0.6537000000000001,-0.3796,0.38230000000000003,0.007,0.021,-0.056
1670356136.439981,-9.293000000000001,-0.43,4.671,-0.6557000000000001,-0.37920000000000004,0.38620000000000004,0.008,0.024,-0.052000000000000005
1670356136.479981,-9.254,-0.445,4.688,-0.6472,-0.381,0.3844,0.001,0.029,-0.055
1670356136.519981,-9.273,-0.47600000000000003,4.671,-0.6486000000000001,-0.3806,0.372,0.005,0.029,-0.052000000000000005
1670356136.5599809,-9.283,-0.456,4.684,-0.649,-0.3796,0.35450000000000004,-0.003,0.018000000000000002,-0.052000000000000005
1670356136.599981,-9.283,-0.389,4.689,-0.649,-0.38070000000000004,0.39130000000000004,0.0,0.023,-0.042
1670356136.639981,-9.343,-0.389,4.689,-0.649,-0.38070000000000004,0.39130000000000004,0.006,0.036000000000000004,-0.052000000000000005
1670356136.679981,-9.247,-0.47400000000000003,4.649,-0.6483,-0.3781,0.36200000000000004,0.016,0.023,-0.054
1670356136.719981,-9.234,-0.426,4.648,-0.649,-0.3779,0.38220000000000004,0.008,0.014,-0.047
1670356136.759981,-9.288,-0.422,4.64,-0.6498,-0.3791,0.3781,0.0,0.009000000000000001,-0.044
1670356136.7999809,-9.309000000000001,-0.425,4.692,-0.6509,-0.3805,0.3804,0.007,0.01,-0.054
1670356136.839981,-9.315,-0.43,4.651,-0.649,-0.378,0.38320000000000004,0.009000000000000001,0.013000000000000001,-0.054
1670356136.879981,-9.248,-0.48,4.662,-0.6489,-0.3791,0.3814,0.0,0.016,-0.048
1670356136.919981,-9.273,-0.368,4.7,-0.6477,-0.3768,0.3836,0.002,0.026000000000000002,-0.042
1670356136.959981,-9.301,-0.453,4.6690000000000005,-0.6483,-0.38070000000000004,0.38320000000000004,0.013000000000000001,0.028,-0.051000000000000004
1670356136.999981,-9.273,-0.421,4.643,-0.6481,-0.38270000000000004,0.3819,0.007,0.03,-0.042
1670356137.039981,-9.243,-0.41000000000000003,4.663,-0.6465000000000001,-0.3805,0.38230000000000003,0.005,0.017,-0.042
1670356137.079981,-9.295,-0.379,4.68,-0.6506000000000001,-0.3809,0.3808,0.018000000000000002,0.01,-0.052000000000000005
1670356137.119981,-9.294,-0.41300000000000003,4.66,-0.6504,-0.38070000000000004,0.3839,0.022,0.01,-0.063
1670356137.159981,-9.28,-0.453,4.633,-0.6471,-0.3786,0.38220000000000004,0.005,0.017,-0.048
1670356137.199981,-9.278,-0.41400000000000003,4.671,-0.6484,-0.3824,0.3834,0.005,0.016,-0.044
1670356137.239981,-9.282,-0.391,4.683,-0.6457,-0.3795,0.3841,0.01,0.02,-0.053
1670356137.279981,-9.278,-0.405,4.706,-0.6538,-0.3839,0.3922,0.01,0.021,-0.06
1670356137.319981,-9.286,-0.436,4.694,-0.6489,-0.381,0.3856,0.002,0.018000000000000002,-0.051000000000000004
1670356137.359981,-9.26,-0.41300000000000003,4.679,-0.6529,-0.38130000000000003,0.38430000000000003,-0.001,0.016,-0.05
1670356137.399981,-9.267,-0.401,4.68,-0.6456000000000001,-0.38,0.38330000000000003,0.005,0.014,-0.051000000000000004
1670356137.439981,-9.289,-0.422,4.665,-0.6504,-0.3789,0.387,0.011,0.014,-0.056
1670356137.399981,-9.259,-0.405,4.662,-0.6498,-0.38020000000000004,0.3789,0.012,0.016,-0.055
1670356137.439981,-9.239,-0.434,4.671,-0.6468,-0.3805,0.38120000000000004,0.004,0.016,-0.054
1670356137.47998,-9.25,-0.445,4.666,-0.6483,-0.3773,0.3825,0.0,0.009000000000000001,-0.049
1670356137.51998,-9.338000000000001,-0.383,4.672,-0.6477,-0.3805,0.38170000000000004,0.002,0.022,-0.053
1670356137.55998,-9.267,-0.396,4.648,-0.6472,-0.38,0.3816,0.007,0.02,-0.056
1670356137.5999799,-9.235,-0.451,4.658,-0.6471,-0.3795,0.3841,-0.001,0.016,-0.043000000000000003
1670356137.63998,-9.263,-0.399,4.715,-0.6473,-0.37970000000000004,0.38330000000000003,-0.002,0.011,-0.05
1670356137.67998,-9.297,-0.41000000000000003,4.7170000000000005,-0.6487,-0.38230000000000003,0.38480000000000003,0.003,0.01,-0.056
1670356137.71998,-9.281,-0.44,4.707,-0.6465000000000001,-0.3791,0.3834,0.006,0.013000000000000001,-0.058
1670356137.75998,-9.254,-0.464,4.662,-0.6487,-0.38120000000000004,0.3831,0.007,0.023,-0.057
1670356137.79998,-9.304,-0.356,4.744,-0.6474000000000001,-0.3806,0.3834,0.012,0.02,-0.052000000000000005
1670356137.83998,-9.28,-0.398,4.66,-0.6444000000000001,-0.38120000000000004,0.38420000000000004,0.007,0.031,-0.045
1670356137.87998,-9.278,-0.453,4.662,-0.647,-0.38130000000000003,0.38330000000000003,-0.005,0.031,-0.049
1670356137.91998,-9.233,-0.395,4.695,-0.6479,-0.38120000000000004,0.38280000000000003,-0.005,0.022,-0.054
1670356137.95998,-9.271,-0.387,4.671,-0.6468,-0.382,0.3809,0.005,0.013000000000000001,-0.054
1670356137.99998,-9.28,-0.417,4.69,-0.6478,-0.38,0.3834,0.011,0.011,-0.065
1670356138.03998,-9.278,-0.464,4.673,-0.6496000000000001,-0.3808,0.3809,-0.001,0.014,-0.049
1670356138.07998,-9.278,-0.433,4.683,-0.6461,-0.377,0.382,-0.005,0.014,-0.052000000000000005
1670356138.11998,-9.257,-0.426,4.6930000000000005,-0.6505000000000001,-0.3801,0.3826,0.002,0.021,-0.056
1670356138.15998,-9.266,-0.417,4.674,-0.6456000000000001,-0.379,0.3829,0.01,0.022,-0.054
1670356138.19998,-9.261000000000001,-0.441,4.675,-0.6464000000000001,-0.3815,0.3845,0.014,0.016,-0.05
1670356138.23998,-9.265,-0.433,4.691,-0.648,-0.379,0.3834,0.012,0.014,-0.051000000000000004
1670356138.27998,-9.267,-0.41600000000000004,4.687,-0.6462,-0.3799,0.3865,0.012,0.008,-0.05
1670356138.31998,-9.269,-0.395,4.668,-0.6518,-0.378,0.3831,0.01,0.01,-0.042
1670356138.35998,-9.286,-0.429,4.666,-0.6477,-0.37870000000000004,0.38180000000000003,0.003,0.013000000000000001,-0.05
1670356138.39998,-9.299,-0.455,4.692,-0.6476000000000001,-0.3806,0.38430000000000003,-0.003,0.017,-0.051000000000000004
1670356138.43998,-9.275,-0.419,4.769,-0.6475000000000001,-0.3786,0.38380000000000003,-0.014,0.002,-0.054
1670356138.47998,-9.317,-0.302,4.731,-0.6488,-0.3801,0.3861,0.002,-0.001,-0.043000000000000003
1670356138.519979,-9.269,-0.486,4.674,-0.6486000000000001,-0.3814,0.38430000000000003,0.023,0.021,-0.067
1670356138.559979,-9.218,-0.47400000000000003,4.71,-0.6483,-0.3794,0.38180000000000003,0.008,0.021,-0.06
1670356138.599979,-9.253,-0.41100000000000003,4.7090000000000005,-0.6497,-0.3796,0.3825,-0.012,0.016,-0.038
1670356138.639979,-9.275,-0.387,4.735,-0.6478,-0.3811,0.3809,0.0,0.015,-0.053
1670356138.679979,-9.255,-0.461,4.716,-0.6492,-0.3794,0.38580000000000003,0.014,0.015,-0.062
1670356138.719979,-9.258000000000001,-0.495,4.697,-0.649,-0.3795,0.384,0.0,0.02,-0.06
1670356138.759979,-9.257,-0.354,4.746,-0.652,-0.3809,0.37410000000000004,-0.005,0.016,-0.044
1670356138.799979,-9.257,-0.354,4.713,-0.652,-0.3809,0.41200000000000003,0.0,0.022,-0.044
1670356138.839979,-9.288,-0.463,4.713,-0.6495000000000001,-0.3798,0.41200000000000003,0.013000000000000001,0.031,-0.053
1670356138.879979,-9.249,-0.446,4.6770000000000005,-0.6535000000000001,-0.3774,0.4058,0.005,0.021,-0.049
1670356138.919979,-9.232,-0.41600000000000004,4.679,-0.6505000000000001,-0.3816,0.3819,0.011,0.014,-0.045
1670356138.959979,-9.245000000000001,-0.39,4.692,-0.653,-0.3814,0.3967,0.016,0.005,-0.058
1670356138.999979,-9.267,-0.417,4.67,-0.6502,-0.38220000000000004,0.384,0.014,0.003,-0.059000000000000004
1670356139.039979,-9.259,-0.459,4.686,-0.6504,-0.3816,0.3919,0.004,0.004,-0.055
1670356139.079979,-9.25,-0.444,4.727,-0.6516000000000001,-0.38170000000000004,0.3821,-0.005,0.007,-0.049
1670356139.119979,-9.224,-0.427,4.715,-0.6534,-0.3803,0.38720000000000004,-0.007,0.014,-0.054
1670356139.159979,-9.245000000000001,-0.41300000000000003,4.713,-0.6491,-0.3779,0.37970000000000004,0.004,0.016,-0.052000000000000005
1670356139.199979,-9.226,-0.438,4.752,-0.662,-0.3839,0.3924,0.005,0.016,-0.052000000000000005
1670356139.239979,-9.233,-0.435,4.761,-0.6513,-0.3808,0.3835,0.01,0.011,-0.052000000000000005
1670356139.279979,-9.263,-0.447,4.728,-0.6616000000000001,-0.38370000000000004,0.38230000000000003,0.005,0.014,-0.048
1670356139.319979,-9.265,-0.448,4.7010000000000005,-0.6534,-0.3808,0.3845,0.006,0.022,-0.052000000000000005
1670356139.359979,-9.224,-0.432,4.702,-0.653,-0.3816,0.385,0.005,0.019,-0.054
1670356139.399979,-9.232,-0.461,4.71,-0.6501,-0.3801,0.391,-0.008,0.021,-0.05
1670356139.439979,-9.287,-0.438,4.736,-0.651,-0.38,0.38220000000000004,0.002,0.019,-0.038
1670356139.479979,-9.315,-0.39,4.731,-0.6491,-0.3809,0.3831,0.003,0.033,-0.051000000000000004
1670356139.519979,-9.227,-0.419,4.706,-0.6504,-0.3805,0.3809,0.004,0.027,-0.057
1670356139.559978,-9.211,-0.427,4.682,-0.6512,-0.382,0.38270000000000004,0.001,0.018000000000000002,-0.043000000000000003
1670356139.599978,-9.269,-0.421,4.68,-0.649,-0.3801,0.38420000000000004,0.009000000000000001,0.013000000000000001,-0.053
1670356139.639978,-9.282,-0.424,4.724,-0.65,-0.3785,0.383,0.013000000000000001,0.011,-0.054
1670356139.679978,-9.226,-0.462,4.757,-0.6487,-0.3784,0.382,0.003,0.015,-0.061
1670356139.719978,-9.213000000000001,-0.429,4.707,-0.6472,-0.3791,0.38280000000000003,0.001,0.003,-0.05
1670356139.759978,-9.269,-0.451,4.726,-0.6495000000000001,-0.37720000000000004,0.383,0.005,0.02,-0.049
1670356139.799978,-9.257,-0.41200000000000003,4.72,-0.6484,-0.3794,0.3801,0.003,0.023,-0.054
1670356139.839978,-9.199,-0.46,4.698,-0.6492,-0.3794,0.38220000000000004,-0.012,0.018000000000000002,-0.037
1670356139.879978,-9.223,-0.402,4.7010000000000005,-0.6498,-0.3801,0.38170000000000004,-0.003,0.013000000000000001,-0.042
1670356139.919978,-9.249,-0.41100000000000003,4.716,-0.6504,-0.38020000000000004,0.3815,0.032,0.009000000000000001,-0.061
1670356139.959978,-9.247,-0.462,4.713,-0.6465000000000001,-0.3808,0.383,0.024,0.013000000000000001,-0.062
1670356139.999978,-9.245000000000001,-0.481,4.727,-0.6504,-0.381,0.3829,0.009000000000000001,0.009000000000000001,-0.042
1670356140.039978,-9.233,-0.436,4.7090000000000005,-0.6513,-0.3799,0.38430000000000003,0.003,0.015,-0.052000000000000005
1670356140.079978,-9.242,-0.406,4.722,-0.6501,-0.3826,0.3851,0.005,0.017,-0.057
1670356140.119978,-9.248,-0.443,4.682,-0.6506000000000001,-0.3786,0.3845,-0.002,0.021,-0.048
1670356140.159978,-9.215,-0.41500000000000004,4.722,-0.6512,-0.3801,0.38270000000000004,0.0,0.02,-0.047
1670356140.199978,-9.247,-0.41600000000000004,4.745,-0.6515000000000001,-0.379,0.38230000000000003,0.001,0.022,-0.054
1670356140.239978,-9.242,-0.446,4.727,-0.6502,-0.3801,0.3836,0.012,0.013000000000000001,-0.053
1670356140.279978,-9.25,-0.43,4.682,-0.6499,-0.37920000000000004,0.3826,0.008,0.013000000000000001,-0.051000000000000004
1670356140.319978,-9.201,-0.438,4.737,-0.6496000000000001,-0.37770000000000004,0.38230000000000003,0.001,0.02,-0.051000000000000004
1670356140.359978,-9.229000000000001,-0.41600000000000004,4.73,-0.648,-0.3794,0.38520000000000004,0.0,0.016,-0.047
1670356140.399978,-9.302,-0.449,4.7010000000000005,-0.651,-0.3814,0.385,0.007,0.028,-0.054
1670356140.439978,-9.216000000000001,-0.393,4.697,-0.6483,-0.3809,0.3824,0.008,0.024,-0.057
1670356140.4799778,-9.232,-0.447,4.703,-0.6517000000000001,-0.3809,0.38230000000000003,0.007,0.023,-0.043000000000000003
1670356140.519978,-9.247,-0.43,4.745,-0.6507000000000001,-0.37870000000000004,0.38130000000000003,0.005,0.023,-0.048
1670356140.559978,-9.271,-0.43,4.745,-0.6496000000000001,-0.3801,0.38270000000000004,0.01,0.019,-0.057
1670356140.599977,-9.214,-0.443,4.728,-0.6491,-0.3811,0.3839,0.007,0.015,-0.048
1670356140.639977,-9.193,-0.433,4.743,-0.6521,-0.37970000000000004,0.3836,0.001,0.014,-0.052000000000000005
1670356140.679977,-9.275,-0.455,4.728,-0.6483,-0.3769,0.383,0.006,0.024,-0.047
1670356140.719977,-9.292,-0.383,4.695,-0.6479,-0.3806,0.38420000000000004,0.007,0.036000000000000004,-0.053
1670356140.759977,-9.232,-0.438,4.716,-0.6473,-0.3814,0.3836,0.01,0.035,-0.048
1670356140.799977,-9.26,-0.396,4.707,-0.6488,-0.3788,0.38230000000000003,0.007,0.026000000000000002,-0.043000000000000003
1670356140.839977,-9.276,-0.417,4.7250000000000005,-0.6498,-0.3806,0.38230000000000003,0.014,0.021,-0.053
1670356140.879977,-9.272,-0.441,4.672,-0.6487,-0.3808,0.38230000000000003,0.014,0.021,-0.054
1670356140.919977,-9.254,-0.447,4.683,-0.648,-0.3801,0.3811,-0.002,0.016,-0.048
1670356140.959977,-9.279,-0.403,4.676,-0.6492,-0.3793,0.3824,-0.016,0.016,-0.046
1670356140.999977,-9.26,-0.367,4.6850000000000005,-0.6499,-0.3809,0.373,-0.001,0.018000000000000002,-0.048
1670356141.039977,-9.255,-0.426,4.647,-0.6511,-0.3798,0.39890000000000003,0.011,0.011,-0.056
1670356141.079977,-9.255,-0.422,4.731,-0.6511,-0.38130000000000003,0.38630000000000003,0.01,0.014,-0.049
1670356141.119977,-9.248,-0.422,4.731,-0.6545000000000001,-0.38130000000000003,0.38630000000000003,0.007,0.009000000000000001,-0.045
1670356141.159977,-9.265,-0.438,4.715,-0.6489,-0.3806,0.3824,0.013000000000000001,0.015,-0.049
1670356141.199977,-9.257,-0.429,4.7010000000000005,-0.6595000000000001,-0.38520000000000004,0.3856,0.01,0.015,-0.056
1670356141.239977,-9.237,-0.429,4.715,-0.6498,-0.3808,0.37120000000000003,0.006,0.014,-0.051000000000000004
1670356141.2799768,-9.23,-0.42,4.729,-0.6621,-0.38420000000000004,0.3841,-0.001,0.012,-0.048
1670356141.319977,-9.291,-0.452,4.727,-0.648,-0.3803,0.3829,0.008,0.009000000000000001,-0.047
1670356141.359977,-9.295,-0.355,4.745,-0.652,-0.3806,0.3836,0.022,0.032,-0.06
1670356141.399977,-9.263,-0.41100000000000003,4.724,-0.6508,-0.3808,0.3851,0.013000000000000001,0.024,-0.055
1670356141.439977,-9.205,-0.483,4.66,-0.6479,-0.37770000000000004,0.38380000000000003,-0.002,0.027,-0.039
1670356141.479977,-9.247,-0.373,4.71,-0.6482,-0.3826,0.3831,-0.002,0.013000000000000001,-0.05
1670356141.5199769,-9.282,-0.377,4.7330000000000005,-0.6497,-0.38120000000000004,0.3831,0.01,0.016,-0.058
1670356141.559977,-9.282,-0.404,4.7250000000000005,-0.6498,-0.3814,0.38330000000000003,0.0,0.009000000000000001,-0.059000000000000004
1670356141.599977,-9.255,-0.489,4.704,-0.6504,-0.3789,0.38530000000000003,-0.004,0.009000000000000001,-0.044
1670356141.639977,-9.290000000000001,-0.355,4.694,-0.6508,-0.3803,0.38180000000000003,0.006,0.014,-0.047
1670356141.679977,-9.290000000000001,-0.371,4.708,-0.6504,-0.3825,0.3834,0.007,0.029,-0.056
1670356141.719976,-9.255,-0.421,4.674,-0.651,-0.38020000000000004,0.38220000000000004,-0.001,0.023,-0.047
1670356141.759976,-9.219,-0.401,4.743,-0.649,-0.3801,0.38070000000000004,0.001,0.017,-0.043000000000000003
1670356141.799976,-9.251,-0.381,4.718,-0.6483,-0.38020000000000004,0.3834,0.01,0.01,-0.056
1670356141.839976,-9.254,-0.405,4.71,-0.6474000000000001,-0.3816,0.3809,0.017,0.008,-0.061
1670356141.879976,-9.268,-0.456,4.686,-0.6492,-0.3808,0.3844,-0.002,0.016,-0.048
1670356141.919976,-9.267,-0.435,4.728,-0.6498,-0.3798,0.3819,-0.004,0.014,-0.041
1670356141.959976,-9.267,-0.4,4.724,-0.6501,-0.3795,0.3839,0.001,0.02,-0.057
1670356141.999976,-9.266,-0.41400000000000003,4.746,-0.6498,-0.3815,0.38170000000000004,0.008,0.024,-0.065
1670356142.039976,-9.248,-0.439,4.774,-0.6485000000000001,-0.3798,0.38480000000000003,0.005,0.016,-0.049
1670356142.0799758,-9.247,-0.426,4.755,-0.6493,-0.37870000000000004,0.3816,0.003,0.014,-0.049
1670356142.119976,-9.251,-0.405,4.727,-0.6501,-0.3806,0.38330000000000003,0.005,0.021,-0.048
1670356142.159976,-9.267,-0.41100000000000003,4.704,-0.6501,-0.3805,0.38530000000000003,0.004,0.022,-0.053
1670356142.199976,-9.242,-0.421,4.718,-0.6502,-0.3803,0.38280000000000003,0.006,0.024,-0.052000000000000005
1670356142.239976,-9.265,-0.461,4.697,-0.6491,-0.3804,0.38170000000000004,0.0,0.018000000000000002,-0.052000000000000005
1670356142.279976,-9.26,-0.426,4.75,-0.6508,-0.37770000000000004,0.3845,-0.001,0.021,-0.046
1670356142.3199759,-9.335,-0.334,4.6850000000000005,-0.6492,-0.38120000000000004,0.3816,0.011,0.01,-0.044
1670356142.359976,-9.235,-0.486,4.664,-0.6483,-0.3811,0.38580000000000003,0.009000000000000001,0.016,-0.056
1670356142.399976,-9.201,-0.40800000000000003,4.676,-0.6495000000000001,-0.3815,0.3854,0.004,0.013000000000000001,-0.053
1670356142.439976,-9.238,-0.404,4.706,-0.6495000000000001,-0.3805,0.38280000000000003,-0.001,0.003,-0.047
1670356142.479976,-9.273,-0.41300000000000003,4.718,-0.6518,-0.37870000000000004,0.38120000000000004,0.007,0.001,-0.058
1670356142.519976,-9.268,-0.435,4.727,-0.6491,-0.3809,0.38480000000000003,0.006,0.007,-0.061
1670356142.5599759,-9.231,-0.487,4.704,-0.6509,-0.3803,0.3864,-0.005,0.01,-0.057
1670356142.599976,-9.241,-0.365,4.749,-0.6491,-0.3803,0.38230000000000003,0.009000000000000001,0.007,-0.051000000000000004
1670356142.639976,-9.277000000000001,-0.47300000000000003,4.722,-0.6508,-0.3803,0.3831,0.01,0.021,-0.051000000000000004
1670356142.679976,-9.246,-0.447,4.698,-0.6494,-0.37920000000000004,0.3826,0.005,0.029,-0.054
1670356142.719976,-9.23,-0.417,4.742,-0.6521,-0.3786,0.38280000000000003,0.001,0.019,-0.037
1670356142.759975,-9.25,-0.366,4.713,-0.6493,-0.37870000000000004,0.38680000000000003,0.019,0.019,-0.053
1670356142.799975,-9.26,-0.456,4.694,-0.6484,-0.3805,0.3841,0.018000000000000002,0.007,-0.067
1670356142.839975,-9.225,-0.481,4.706,-0.6499,-0.38120000000000004,0.3805,-0.008,-0.004,-0.053
1670356142.879975,-9.269,-0.424,4.748,-0.6495000000000001,-0.3808,0.3839,-0.021,0.004,-0.04
1670356142.919975,-9.26,-0.444,4.732,-0.6481,-0.37920000000000004,0.3844,0.001,0.01,-0.062
1670356142.959975,-9.241,-0.419,4.785,-0.6493,-0.3776,0.38230000000000003,0.011,0.016,-0.057
1670356142.999975,-9.239,-0.46,4.775,-0.649,-0.38070000000000004,0.38420000000000004,0.007,0.018000000000000002,-0.046
1670356143.039975,-9.226,-0.46,4.731,-0.6482,-0.38230000000000003,0.3844,0.008,0.012,-0.047
1670356143.079975,-9.219,-0.433,4.752,-0.6506000000000001,-0.3783,0.3859,0.012,0.014,-0.05
1670356143.1199749,-9.241,-0.426,4.765,-0.6502,-0.3796,0.38480000000000003,0.009000000000000001,0.022,-0.048
1670356143.159975,-9.241,-0.441,4.724,-0.6471,-0.38,0.38420000000000004,0.011,0.018000000000000002,-0.046
1670356143.199975,-9.244,-0.459,4.739,-0.649,-0.3798,0.3815,0.009000000000000001,0.024,-0.051000000000000004
1670356143.239975,-9.242,-0.429,4.764,-0.6571,-0.3816,0.387,-0.001,0.023,-0.046
1670356143.279975,-9.3,-0.36,4.694,-0.6505000000000001,-0.3808,0.396,0.007,0.029,-0.032
1670356143.319975,-9.3,-0.465,4.695,-0.6505000000000001,-0.38170000000000004,0.37510000000000004,0.007,0.039,-0.047
1670356143.3599749,-9.22,-0.465,4.6690000000000005,-0.654,-0.38170000000000004,0.38370000000000004,0.011,0.027,-0.056
1670356143.399975,-9.22,-0.40800000000000003,4.6690000000000005,-0.6512,-0.3839,0.38370000000000004,0.006,0.015,-0.046
1670356143.439975,-9.258000000000001,-0.394,4.712,-0.6505000000000001,-0.3794,0.3811,0.006,0.013000000000000001,-0.052000000000000005
1670356143.479975,-9.275,-0.41600000000000004,4.7090000000000005,-0.6504,-0.3808,0.394,0.008,0.008,-0.054
1670356143.519975,-9.267,-0.423,4.732,-0.6515000000000001,-0.38420000000000004,0.3839,-0.002,0.019,-0.056
1670356143.559975,-9.269,-0.464,4.757,-0.6499,-0.3806,0.3855,-0.002,0.011,-0.04
1670356143.5999749,-9.27,-0.339,4.734,-0.6509,-0.38070000000000004,0.38420000000000004,0.003,0.028,-0.049
1670356143.639975,-9.281,-0.426,4.674,-0.648,-0.3791,0.38170000000000004,0.01,0.034,-0.051000000000000004
1670356143.679975,-9.239,-0.423,4.722,-0.6519,-0.3795,0.38530000000000003,0.007,0.022,-0.042
1670356143.719975,-9.244,-0.397,4.749,-0.6499,-0.3808,0.3836,0.008,0.015,-0.045
1670356143.759975,-9.266,-0.372,4.683,-0.648,-0.3805,0.38380000000000003,0.019,0.008,-0.061
1670356143.799974,-9.278,-0.41000000000000003,4.7090000000000005,-0.6505000000000001,-0.3803,0.3839,0.023,0.01,-0.063
1670356143.839974,-9.258000000000001,-0.45,4.708,-0.6501,-0.3805,0.3825,0.002,0.009000000000000001,-0.044
1670356143.879974,-9.266,-0.404,4.715,-0.6512,-0.382,0.38170000000000004,0.0,0.01,-0.05
1670356143.9199739,-9.261000000000001,-0.377,4.7090000000000005,-0.6483,-0.3798,0.3841,0.015,0.012,-0.055
1670356143.959974,-9.253,-0.399,4.745,-0.6523,-0.38130000000000003,0.3866,0.014,0.014,-0.054
1670356143.999974,-9.227,-0.424,4.743,-0.6491,-0.3825,0.382,0.007,0.014,-0.049
1670356144.039974,-9.241,-0.40700000000000003,4.71,-0.6501,-0.3788,0.3829,0.005,0.011,-0.045
1670356144.079974,-9.244,-0.386,4.719,-0.6642,-0.3834,0.3854,0.003,0.02,-0.05
1670356144.119974,-9.233,-0.395,4.742,-0.6512,-0.381,0.383,0.008,0.025,-0.056
1670356144.1599739,-9.264,-0.427,4.7090000000000005,-0.6484,-0.38130000000000003,0.382,-0.002,0.019,-0.049
1670356144.199974,-9.263,-0.427,4.7540000000000004,-0.6484,-0.3824,0.38480000000000003,-0.007,0.023,-0.047
1670356144.239974,-9.326,-0.278,4.781,-0.6503,-0.3814,0.38230000000000003,0.008,0.032,-0.051000000000000004
1670356144.279974,-9.244,-0.447,4.6610000000000005,-0.6466000000000001,-0.3806,0.38480000000000003,0.009000000000000001,0.022,-0.061
1670356144.319974,-9.216000000000001,-0.41600000000000004,4.664,-0.6501,-0.3811,0.38470000000000004,0.0,0.019,-0.054
1670356144.359974,-9.259,-0.375,4.715,-0.6501,-0.382,0.38320000000000004,-0.003,0.007,-0.046
1670356144.3999739,-9.289,-0.377,4.732,-0.6515000000000001,-0.3816,0.3854,0.002,0.008,-0.054
1670356144.439974,-9.281,-0.401,4.752,-0.653,-0.38170000000000004,0.38470000000000004,0.005,0.006,-0.067
1670356144.479974,-9.247,-0.483,4.706,-0.6508,-0.3785,0.3806,-0.003,0.005,-0.052000000000000005
1670356144.519974,-9.252,-0.328,4.758,-0.6485000000000001,-0.3836,0.3845,0.002,0.008,-0.044
1670356144.559974,-9.249,-0.439,4.737,-0.6526000000000001,-0.3814,0.38480000000000003,0.008,0.022,-0.048
1670356144.599974,-9.257,-0.429,4.728,-0.6499,-0.38280000000000003,0.382,0.012,0.03,-0.048
1670356144.6399739,-9.225,-0.399,4.715,-0.6503,-0.38220000000000004,0.38520000000000004,0.003,0.02,-0.039
1670356144.679974,-9.253,-0.369,4.741,-0.6491,-0.3805,0.3834,0.011,0.013000000000000001,-0.041
1670356144.719974,-9.248,-0.38,4.714,-0.6511,-0.3805,0.3826,0.017,0.01,-0.055
1670356144.759974,-9.253,-0.419,4.698,-0.652,-0.38330000000000003,0.38220000000000004,0.005,0.01,-0.051000000000000004
1670356144.799974,-9.271,-0.42,4.745,-0.6501,-0.3815,0.3844,-0.016,0.012,-0.053
1670356144.839973,-9.238,-0.392,4.771,-0.6482,-0.3819,0.382,-0.003,0.018000000000000002,-0.049
1670356144.879973,-9.258000000000001,-0.395,4.723,-0.6501,-0.3798,0.3854,-0.003,0.019,-0.058
1670356144.919973,-9.234,-0.429,4.749,-0.6512,-0.38270000000000004,0.38220000000000004,0.0,0.015,-0.061
1670356144.9599729,-9.238,-0.41500000000000004,4.749,-0.654,-0.3814,0.3825,-0.001,0.011,-0.057
1670356144.999973,-9.249,-0.389,4.712,-0.6473,-0.3806,0.38380000000000003,0.003,0.014,-0.046
1670356145.039973,-9.244,-0.427,4.743,-0.6501,-0.3801,0.3844,0.009000000000000001,0.018000000000000002,-0.056
1670356145.079973,-9.272,-0.47500000000000003,4.755,-0.6546000000000001,-0.3808,0.3865,0.01,0.023,-0.063
1670356145.119973,-9.241,-0.444,4.755,-0.6499,-0.3814,0.3803,-0.007,0.018000000000000002,-0.051000000000000004
1670356145.159973,-9.276,-0.322,4.757,-0.6485000000000001,-0.3816,0.38370000000000004,-0.003,0.021,-0.036000000000000004
1670356145.1999729,-9.26,-0.486,4.689,-0.6523,-0.38270000000000004,0.38280000000000003,0.009000000000000001,0.028,-0.056
1670356145.239973,-9.205,-0.39,4.675,-0.6502,-0.37970000000000004,0.38330000000000003,0.011,0.023,-0.054
1670356145.279973,-9.229000000000001,-0.417,4.704,-0.6504,-0.3798,0.3831,-0.007,0.009000000000000001,-0.039
1670356145.319973,-9.254,-0.40700000000000003,4.724,-0.6485000000000001,-0.3839,0.38720000000000004,-0.002,0.003,-0.054
1670356145.359973,-9.258000000000001,-0.399,4.758,-0.6571,-0.38170000000000004,0.3841,0.008,0.005,-0.062
1670356145.399973,-9.207,-0.496,4.777,-0.6502,-0.3811,0.38170000000000004,0.005,0.009000000000000001,-0.065
1670356145.4399729,-9.226,-0.375,4.773,-0.6523,-0.3784,0.384,-0.003,0.004,-0.043000000000000003
1670356145.479973,-9.251,-0.461,4.743,-0.6491,-0.3814,0.3839,0.001,0.024,-0.057
1670356145.519973,-9.215,-0.422,4.737,-0.6527000000000001,-0.37970000000000004,0.37720000000000004,0.009000000000000001,0.023,-0.053
1670356145.559973,-9.213000000000001,-0.405,4.721,-0.6524,-0.37870000000000004,0.3905,0.008,0.025,-0.044
1670356145.599973,-9.213000000000001,-0.41600000000000004,4.699,-0.6524,-0.3808,0.3637,0.0,0.014,-0.047
1670356145.639973,-9.233,-0.41600000000000004,4.727,-0.651,-0.3808,0.3637,0.009000000000000001,0.009000000000000001,-0.054
1670356145.679973,-9.25,-0.40800000000000003,4.727,-0.6502,-0.3834,0.3669,0.005,0.014,-0.058
1670356145.719973,-9.244,-0.433,4.721,-0.6499,-0.3806,0.4007,-0.003,0.013000000000000001,-0.049
1670356145.759973,-9.244,-0.44,4.707,-0.6507000000000001,-0.38170000000000004,0.38380000000000003,-0.005,0.016,-0.052000000000000005
1670356145.799973,-9.238,-0.399,4.741,-0.6538,-0.3821,0.3936,-0.001,0.011,-0.053
1670356145.839973,-9.252,-0.40700000000000003,4.7090000000000005,-0.6513,-0.3801,0.3864,0.002,0.01,-0.051000000000000004
1670356145.879972,-9.214,-0.427,4.7700000000000005,-0.6488,-0.3786,0.3844,0.001,0.003,-0.054
1670356145.919972,-9.212,-0.417,4.7620000000000005,-0.6502,-0.38220000000000004,0.38270000000000004,0.007,0.005,-0.052000000000000005
1670356145.959972,-9.224,-0.432,4.747,-0.6518,-0.38,0.38330000000000003,0.0,0.009000000000000001,-0.06
1670356145.9999719,-9.226,-0.448,4.7780000000000005,-0.6502,-0.38270000000000004,0.3904,0.0,0.017,-0.052000000000000005
1670356146.039972,-9.209,-0.43,4.7620000000000005,-0.6512,-0.3786,0.38570000000000004,0.007,0.015,-0.052000000000000005
1670356146.079972,-9.194,-0.439,4.774,-0.6644,-0.3795,0.3874,0.0,0.017,-0.052000000000000005
1670356146.119972,-9.276,-0.41000000000000003,4.779,-0.6502,-0.3795,0.38530000000000003,0.007,0.027,-0.048
1670356146.159972,-9.258000000000001,-0.48,4.7860000000000005,-0.6538,-0.37920000000000004,0.38830000000000003,0.009000000000000001,0.03,-0.049
1670356146.199972,-9.179,-0.398,4.727,-0.653,-0.3798,0.38480000000000003,0.005,0.025,-0.051000000000000004
1670356146.2399719,-9.216000000000001,-0.418,4.741,-0.6575000000000001,-0.38220000000000004,0.3905,0.004,0.021,-0.045
1670356146.279972,-9.252,-0.438,4.801,-0.6506000000000001,-0.3791,0.383,0.01,0.017,-0.056
1670356146.319972,-9.262,-0.439,4.759,-0.6493,-0.37970000000000004,0.38620000000000004,0.004,0.022,-0.057
1670356146.359972,-9.189,-0.498,4.736,-0.6537000000000001,-0.38130000000000003,0.3845,-0.006,0.022,-0.05
1670356146.399972,-9.205,-0.39,4.775,-0.6515000000000001,-0.38020000000000004,0.38270000000000004,0.002,0.021,-0.048
1670356146.439972,-9.259,-0.492,4.689,-0.6531,-0.3783,0.38370000000000004,0.012,0.035,-0.062
1670356146.479972,-9.24,-0.424,4.706,-0.651,-0.3801,0.3841,0.008,0.039,-0.051000000000000004
1670356146.519972,-9.201,-0.442,4.752,-0.6518,-0.38020000000000004,0.3831,0.0,0.017,-0.036000000000000004
1670356146.559972,-9.235,-0.378,4.751,-0.651,-0.3781,0.3849,0.006,0.022,-0.049
1670356146.599972,-9.243,-0.49,4.767,-0.6507000000000001,-0.3786,0.38230000000000003,0.004,0.006,-0.039
1670356146.639972,-9.296,-0.41500000000000004,4.739,-0.6482,-0.3773,0.38230000000000003,0.019,0.008,-0.052000000000000005
1670356146.679972,-9.204,-0.419,4.737,-0.6523,-0.38,0.38230000000000003,0.027,0.005,-0.06
1670356146.719972,-9.231,-0.424,4.741,-0.6493,-0.3798,0.38420000000000004,0.024,0.01,-0.058
1670356146.759972,-9.254,-0.445,4.74,-0.6516000000000001,-0.3806,0.3829,0.011,0.018000000000000002,-0.04
1670356146.799972,-9.232,-0.423,4.748,-0.6524,-0.382,0.3839,0.007,0.015,-0.044
1670356146.839972,-9.202,-0.404,4.8,-0.6486000000000001,-0.3769,0.38470000000000004,0.011,0.019,-0.058
1670356146.879972,-9.217,-0.404,4.779,-0.6497,-0.37970000000000004,0.38270000000000004,0.011,0.014,-0.052000000000000005
1670356146.919971,-9.247,-0.405,4.768,-0.6501,-0.3806,0.38380000000000003,0.01,0.012,-0.039
1670356146.959971,-9.235,-0.397,4.758,-0.6494,-0.3814,0.38570000000000004,0.01,0.026000000000000002,-0.057
1670356146.999971,-9.238,-0.41000000000000003,4.776,-0.6524,-0.38120000000000004,0.3851,0.007,0.023,-0.06
1670356147.0399709,-9.204,-0.433,4.78,-0.6518,-0.38220000000000004,0.384,-0.001,0.02,-0.049
1670356147.079971,-9.199,-0.393,4.732,-0.6502,-0.3806,0.38480000000000003,0.0,0.02,-0.037
1670356147.119971,-9.278,-0.434,4.76,-0.6511,-0.382,0.3861,0.009000000000000001,0.028,-0.055
1670356147.159971,-9.204,-0.38,4.735,-0.653,-0.3839,0.3849,0.01,0.02,-0.066
1670356147.199971,-9.209,-0.443,4.703,-0.6527000000000001,-0.3816,0.38420000000000004,0.005,0.016,-0.047
1670356147.239971,-9.254,-0.435,4.736,-0.651,-0.3799,0.3856,0.009000000000000001,0.013000000000000001,-0.057
1670356147.279971,-9.26,-0.4,4.775,-0.6502,-0.38230000000000003,0.3859,0.007,0.015,-0.057
1670356147.319971,-9.22,-0.426,4.791,-0.6505000000000001,-0.3841,0.38520000000000004,0.009000000000000001,0.016,-0.058
1670356147.359971,-9.182,-0.41500000000000004,4.749,-0.6504,-0.38170000000000004,0.3854,-0.005,0.024,-0.05
1670356147.399971,-9.236,-0.439,4.766,-0.6516000000000001,-0.38280000000000003,0.38570000000000004,0.013000000000000001,0.02,-0.045
1670356147.439971,-9.245000000000001,-0.374,4.696,-0.6515000000000001,-0.3809,0.38220000000000004,0.015,0.032,-0.052000000000000005
1670356147.479971,-9.206,-0.44,4.737,-0.6505000000000001,-0.3806,0.38530000000000003,0.003,0.025,-0.05
1670356147.519971,-9.236,-0.386,4.737,-0.6496000000000001,-0.3836,0.3835,0.007,0.02,-0.048
1670356147.559971,-9.217,-0.39,4.761,-0.652,-0.3831,0.3809,0.01,0.017,-0.05
1670356147.599971,-9.26,-0.405,4.7540000000000004,-0.6504,-0.381,0.38570000000000004,0.004,0.009000000000000001,-0.059000000000000004
1670356147.639971,-9.247,-0.395,4.721,-0.6538,-0.38270000000000004,0.38280000000000003,-0.003,0.008,-0.058
1670356147.679971,-9.229000000000001,-0.389,4.744,-0.6493,-0.382,0.3831,0.0,0.011,-0.047
1670356147.719971,-9.245000000000001,-0.41000000000000003,4.775,-0.6504,-0.3801,0.3844,0.001,0.012,-0.052000000000000005
1670356147.759971,-9.252,-0.41400000000000003,4.742,-0.6502,-0.3815,0.38180000000000003,-0.002,0.018000000000000002,-0.058
1670356147.799971,-9.214,-0.41400000000000003,4.783,-0.6552,-0.38270000000000004,0.3922,0.002,0.016,-0.055
1670356147.839971,-9.218,-0.424,4.739,-0.6512,-0.3839,0.4011,0.007,0.015,-0.044
1670356147.879971,-9.218,-0.387,4.752,-0.6512,-0.3839,0.3617,0.01,0.014,-0.05
1670356147.919971,-9.24,-0.387,4.752,-0.6537000000000001,-0.3825,0.3617,0.01,0.018000000000000002,-0.052000000000000005
1670356147.95997,-9.235,-0.419,4.755,-0.6525000000000001,-0.38180000000000003,0.3932,0.004,0.026000000000000002,-0.05
1670356147.99997,-9.251,-0.438,4.7250000000000005,-0.6508,-0.3821,0.3683,0.002,0.021,-0.05
1670356148.03997,-9.237,-0.405,4.751,-0.6548,-0.3794,0.37270000000000003,0.0,0.018000000000000002,-0.041
1670356148.07997,-9.272,-0.297,4.742,-0.6553,-0.3831,0.3935,0.022,0.027,-0.062
1670356148.11997,-9.27,-0.458,4.681,-0.6491,-0.3816,0.386,0.015,0.029,-0.067
1670356148.15997,-9.226,-0.41300000000000003,4.691,-0.6522,-0.38370000000000004,0.3916,-0.005,0.021,-0.047
1670356148.19997,-9.224,-0.40700000000000003,4.734,-0.651,-0.38130000000000003,0.38230000000000003,-0.006,0.014,-0.042
1670356148.23997,-9.262,-0.389,4.756,-0.6503,-0.3805,0.3831,0.009000000000000001,0.011,-0.053
1670356148.27997,-9.27,-0.41400000000000003,4.758,-0.6543,-0.384,0.3829,0.009000000000000001,0.004,-0.055
1670356148.31997,-9.235,-0.47600000000000003,4.779,-0.6546000000000001,-0.3831,0.3874,0.0,0.005,-0.044
1670356148.35997,-9.244,-0.336,4.745,-0.651,-0.3819,0.3856,0.001,0.016,-0.045
1670356148.39997,-9.248,-0.451,4.753,-0.6512,-0.38220000000000004,0.387,0.009000000000000001,0.022,-0.053
1670356148.43997,-9.24,-0.422,4.69,-0.6512,-0.3796,0.3856,0.0,0.015,-0.044
1670356148.47997,-9.226,-0.396,4.72,-0.6503,-0.3814,0.3815,0.001,0.01,-0.043000000000000003
1670356148.51997,-9.254,-0.382,4.772,-0.6526000000000001,-0.3819,0.3839,0.008,0.01,-0.056
1670356148.55997,-9.26,-0.40700000000000003,4.734,-0.6521,-0.3801,0.38230000000000003,0.007,0.008,-0.06
1670356148.59997,-9.242,-0.438,4.724,-0.6516000000000001,-0.3801,0.3811,-0.009000000000000001,0.015,-0.053
1670356148.63997,-9.244,-0.425,4.777,-0.6526000000000001,-0.3801,0.3869,-0.01,0.011,-0.055
1670356148.67997,-9.254,-0.376,4.753,-0.6517000000000001,-0.3834,0.38270000000000004,0.0,0.02,-0.057
1670356148.71997,-9.194,-0.441,4.7780000000000005,-0.6512,-0.38170000000000004,0.38720000000000004,-0.006,0.014,-0.053
1670356148.75997,-9.223,-0.43,4.746,-0.6525000000000001,-0.38,0.3859,-0.003,0.012,-0.061
1670356148.79997,-9.202,-0.45,4.788,-0.6515000000000001,-0.3808,0.383,-0.007,0.019,-0.058
1670356148.83997,-9.222,-0.424,4.777,-0.6496000000000001,-0.3806,0.38730000000000003,-0.003,0.017,-0.051000000000000004
1670356148.87997,-9.254,-0.41000000000000003,4.744,-0.6512,-0.3794,0.38470000000000004,0.001,0.018000000000000002,-0.056
1670356148.91997,-9.229000000000001,-0.442,4.758,-0.6533,-0.3775,0.38380000000000003,0.012,0.018000000000000002,-0.054
1670356148.95997,-9.261000000000001,-0.507,4.737,-0.653,-0.3786,0.38430000000000003,-0.001,0.012,-0.041
1670356148.999969,-9.261000000000001,-0.441,4.742,-0.6508,-0.3795,0.38380000000000003,-0.005,0.012,-0.042
1670356149.039969,-9.290000000000001,-0.356,4.815,-0.6507000000000001,-0.3789,0.3859,0.012,0.021,-0.055
1670356149.079969,-9.216000000000001,-0.467,4.744,-0.6512,-0.3795,0.3824,0.019,0.021,-0.059000000000000004
1670356149.119969,-9.169,-0.448,4.703,-0.6524,-0.38130000000000003,0.3834,0.004,0.015,-0.051000000000000004
1670356149.159969,-9.233,-0.424,4.7540000000000004,-0.6513,-0.3814,0.386,-0.003,0.013000000000000001,-0.045
1670356149.199969,-9.23,-0.418,4.798,-0.6527000000000001,-0.3801,0.3864,0.006,0.01,-0.057
1670356149.239969,-9.229000000000001,-0.455,4.772,-0.6532,-0.3804,0.3859,0.009000000000000001,0.01,-0.058
1670356149.279969,-9.228,-0.483,4.7620000000000005,-0.653,-0.3814,0.38470000000000004,0.005,0.019,-0.054
1670356149.319969,-9.254,-0.353,4.798,-0.6545000000000001,-0.3803,0.3839,0.01,0.014,-0.041
1670356149.359969,-9.264,-0.444,4.752,-0.6534,-0.3804,0.38480000000000003,0.019,0.025,-0.052000000000000005
1670356149.399969,-9.209,-0.443,4.779,-0.6517000000000001,-0.38170000000000004,0.388,0.005,0.031,-0.047
1670356149.439969,-9.175,-0.402,4.774,-0.6512,-0.3804,0.38470000000000004,0.0,0.022,-0.043000000000000003
1670356149.479969,-9.229000000000001,-0.41300000000000003,4.789,-0.6489,-0.37920000000000004,0.38470000000000004,0.009000000000000001,0.011,-0.05
1670356149.519969,-9.229000000000001,-0.446,4.776,-0.6532,-0.3794,0.38280000000000003,0.012,0.016,-0.056
1670356149.559969,-9.199,-0.487,4.753,-0.651,-0.3786,0.38630000000000003,0.0,0.016,-0.054
1670356149.599969,-9.236,-0.444,4.759,-0.6523,-0.3803,0.38220000000000004,-0.01,0.015,-0.049
1670356149.639969,-9.223,-0.424,4.7330000000000005,-0.6508,-0.37920000000000004,0.38330000000000003,-0.009000000000000001,0.021,-0.055
1670356149.679969,-9.239,-0.425,4.785,-0.6506000000000001,-0.3769,0.3835,0.0,0.016,-0.047
1670356149.719969,-9.214,-0.42,4.756,-0.6512,-0.38,0.3841,0.011,0.017,-0.047
1670356149.759969,-9.213000000000001,-0.41300000000000003,4.766,-0.6536000000000001,-0.3784,0.38480000000000003,0.011,0.014,-0.045
1670356149.799969,-9.222,-0.435,4.7700000000000005,-0.654,-0.3814,0.3834,0.024,0.011,-0.048
1670356149.839969,-9.206,-0.424,4.769,-0.6524,-0.38070000000000004,0.3841,0.027,0.015,-0.047
1670356149.879969,-9.181000000000001,-0.429,4.844,-0.653,-0.3806,0.3861,0.007,0.013000000000000001,-0.047
1670356149.9199688,-9.239,-0.419,4.74,-0.6519,-0.3831,0.38580000000000003,0.004,0.023,-0.048
1670356149.959969,-9.248,-0.426,4.758,-0.6511,-0.3795,0.38470000000000004,0.011,0.028,-0.045
1670356149.999969,-9.184000000000001,-0.378,4.739,-0.6526000000000001,-0.3808,0.38580000000000003,0.01,0.031,-0.058
1670356150.039968,-9.218,-0.41300000000000003,4.715,-0.6497,-0.37820000000000004,0.38520000000000004,0.001,0.026000000000000002,-0.049
1670356150.079968,-9.238,-0.399,4.792,-0.651,-0.38230000000000003,0.37560000000000004,0.006,0.02,-0.049
1670356150.119968,-9.261000000000001,-0.40700000000000003,4.798,-0.6612,-0.3811,0.38780000000000003,0.012,0.016,-0.061
1670356150.159968,-9.261000000000001,-0.40700000000000003,4.743,-0.6612,-0.3811,0.34090000000000004,0.004,0.017,-0.055
1670356150.199968,-9.217,-0.483,4.743,-0.6557000000000001,-0.3829,0.34090000000000004,-0.004,0.011,-0.045
1670356150.239968,-9.203,-0.399,4.773,-0.6576000000000001,-0.38280000000000003,0.4066,0.006,0.017,-0.046
1670356150.279968,-9.228,-0.468,4.742,-0.6548,-0.3791,0.3643,0.011,0.031,-0.055
1670356150.319968,-9.242,-0.396,4.764,-0.667,-0.3836,0.3885,0.007,0.032,-0.046
1670356150.359968,-9.167,-0.423,4.737,-0.6531,-0.37870000000000004,0.3866,0.005,0.017,-0.043000000000000003
1670356150.399968,-9.245000000000001,-0.383,4.752,-0.6587000000000001,-0.37970000000000004,0.38770000000000004,0.013000000000000001,0.013000000000000001,-0.053
1670356150.439968,-9.232,-0.387,4.751,-0.6525000000000001,-0.38270000000000004,0.38380000000000003,0.013000000000000001,0.017,-0.058
1670356150.479968,-9.242,-0.446,4.706,-0.6504,-0.3831,0.3834,0.005,0.014,-0.05
1670356150.519968,-9.232,-0.43,4.756,-0.6547000000000001,-0.3806,0.38280000000000003,-0.006,0.017,-0.046
1670356150.559968,-9.229000000000001,-0.395,4.738,-0.6524,-0.38070000000000004,0.38480000000000003,-0.003,0.02,-0.053
1670356150.599968,-9.223,-0.36,4.764,-0.6505000000000001,-0.382,0.3836,0.008,0.02,-0.057
1670356150.639968,-9.209,-0.399,4.739,-0.6496000000000001,-0.3811,0.385,0.015,0.015,-0.058
1670356150.679968,-9.217,-0.441,4.785,-0.6525000000000001,-0.38230000000000003,0.3861,0.01,0.012,-0.051000000000000004
1670356150.719968,-9.222,-0.431,4.807,-0.6494,-0.3816,0.38280000000000003,0.01,0.007,-0.053
1670356150.759968,-9.227,-0.42,4.755,-0.6516000000000001,-0.38170000000000004,0.3876,0.008,0.016,-0.061
1670356150.799968,-9.204,-0.444,4.767,-0.6529,-0.3795,0.38580000000000003,0.011,0.018000000000000002,-0.05
1670356150.839968,-9.22,-0.432,4.7540000000000004,-0.6536000000000001,-0.382,0.3855,0.013000000000000001,0.018000000000000002,-0.029
1670356150.879968,-9.306000000000001,-0.365,4.798,-0.6523,-0.38070000000000004,0.3845,0.016,0.036000000000000004,-0.051000000000000004
1670356150.919968,-9.215,-0.371,4.765,-0.6505000000000001,-0.38270000000000004,0.38580000000000003,0.008,0.039,-0.051000000000000004
1670356150.9599679,-9.199,-0.444,4.745,-0.6512,-0.38120000000000004,0.3831,0.0,0.025,-0.045
1670356150.999968,-9.223,-0.357,4.713,-0.6516000000000001,-0.3806,0.3855,0.002,0.015,-0.041
1670356151.039968,-9.256,-0.35100000000000003,4.718,-0.649,-0.38270000000000004,0.38330000000000003,0.02,0.009000000000000001,-0.058
1670356151.079967,-9.244,-0.389,4.779,-0.6534,-0.3815,0.3859,0.013000000000000001,0.016,-0.06
1670356151.119967,-9.22,-0.438,4.741,-0.6508,-0.3803,0.3808,-0.005,0.01,-0.045
1670356151.159967,-9.261000000000001,-0.363,4.788,-0.6507000000000001,-0.382,0.3866,0.005,0.024,-0.053
1670356151.199967,-9.26,-0.367,4.7540000000000004,-0.6501,-0.3794,0.3808,0.006,0.029,-0.061
1670356151.239967,-9.217,-0.40800000000000003,4.72,-0.6532,-0.382,0.38380000000000003,-0.01,0.03,-0.048
1670356151.279967,-9.197000000000001,-0.354,4.751,-0.6516000000000001,-0.3825,0.3851,-0.001,0.015,-0.042
1670356151.319967,-9.235,-0.364,4.7700000000000005,-0.6496000000000001,-0.38170000000000004,0.38470000000000004,0.011,0.007,-0.059000000000000004
1670356151.359967,-9.248,-0.40700000000000003,4.741,-0.6596000000000001,-0.3864,0.3936,0.007,0.011,-0.061
1670356151.399967,-9.224,-0.404,4.755,-0.6585000000000001,-0.38170000000000004,0.3849,-0.002,0.005,-0.052000000000000005
1670356151.439967,-9.239,-0.395,4.755,-0.654,-0.3819,0.38770000000000004,0.001,0.012,-0.051000000000000004
1670356151.479967,-9.232,-0.38,4.795,-0.6515000000000001,-0.38130000000000003,0.3821,0.008,0.016,-0.055
1670356151.519967,-9.229000000000001,-0.39,4.763,-0.6524,-0.3811,0.38530000000000003,0.005,0.02,-0.058
1670356151.559967,-9.231,-0.39,4.74,-0.6529,-0.3788,0.3856,0.003,0.017,-0.054
1670356151.599967,-9.221,-0.375,4.7780000000000005,-0.6503,-0.3829,0.3871,0.001,0.012,-0.049
1670356151.639967,-9.242,-0.41300000000000003,4.773,-0.6505000000000001,-0.3821,0.3861,0.003,0.017,-0.054
1670356151.679967,-9.257,-0.436,4.7860000000000005,-0.6503,-0.38280000000000003,0.38520000000000004,0.002,0.019,-0.053
1670356151.719967,-9.223,-0.41600000000000004,4.788,-0.6499,-0.3793,0.38380000000000003,-0.003,0.01,-0.049
1670356151.7599669,-9.227,-0.323,4.771,-0.6534,-0.3826,0.38520000000000004,0.005,0.008,-0.038
1670356151.799967,-9.244,-0.47700000000000004,4.739,-0.652,-0.3825,0.38380000000000003,0.012,0.018000000000000002,-0.056
1670356151.839967,-9.185,-0.368,4.724,-0.6526000000000001,-0.3839,0.38470000000000004,0.015,0.02,-0.057
1670356151.879967,-9.193,-0.401,4.738,-0.6527000000000001,-0.3831,0.3875,-0.003,0.007,-0.045
1670356151.919967,-9.237,-0.388,4.8,-0.6564,-0.3835,0.38470000000000004,-0.001,0.005,-0.054
1670356151.959967,-9.245000000000001,-0.389,4.792,-0.652,-0.3816,0.387,0.013000000000000001,0.0,-0.066
1670356151.9999669,-9.209,-0.441,4.824,-0.6508,-0.3784,0.38420000000000004,0.009000000000000001,0.006,-0.065
1670356152.039967,-9.197000000000001,-0.371,4.792,-0.6526000000000001,-0.38320000000000004,0.385,-0.005,0.014,-0.056
1670356152.079967,-9.236,-0.47400000000000003,4.783,-0.654,-0.3819,0.388,-0.005,0.028,-0.051000000000000004
1670356152.119967,-9.235,-0.403,4.8100000000000005,-0.6518,-0.3806,0.38430000000000003,-0.007,0.036000000000000004,-0.049
1670356152.159967,-9.199,-0.386,4.769,-0.6519,-0.3805,0.3856,-0.008,0.032,-0.039
1670356152.199966,-9.212,-0.40800000000000003,4.784,-0.6504,-0.3803,0.384,-0.007,0.025,-0.044
1670356152.239966,-9.251,-0.392,4.767,-0.65,-0.38330000000000003,0.38630000000000003,0.008,0.016,-0.055
1670356152.279966,-9.216000000000001,-0.432,4.782,-0.6637000000000001,-0.3849,0.39130000000000004,0.002,0.014,-0.049
1670356152.319966,-9.226,-0.43,4.768,-0.6523,-0.3783,0.3851,-0.004,0.016,-0.051000000000000004
1670356152.359966,-9.227,-0.428,4.736,-0.6577000000000001,-0.3819,0.4163,-0.005,0.023,-0.054
1670356152.399966,-9.227,-0.406,4.743,-0.6577000000000001,-0.38280000000000003,0.3885,0.003,0.019,-0.055
1670356152.439966,-9.22,-0.406,4.745,-0.6545000000000001,-0.38280000000000003,0.3816,0.002,0.017,-0.052000000000000005
1670356152.479966,-9.225,-0.41400000000000003,4.745,-0.6533,-0.3808,0.3816,0.003,0.01,-0.048
1670356152.519966,-9.193,-0.396,4.776,-0.6523,-0.38270000000000004,0.3861,0.005,0.005,-0.049
1670356152.5599658,-9.205,-0.41300000000000003,4.784,-0.6517000000000001,-0.3811,0.38470000000000004,0.001,0.01,-0.056
1670356152.599966,-9.206,-0.428,4.775,-0.6536000000000001,-0.3798,0.3725,0.006,0.013000000000000001,-0.058
1670356152.639966,-9.215,-0.436,4.771,-0.6529,-0.3791,0.3864,-0.007,0.013000000000000001,-0.042
1670356152.679966,-9.17,-0.433,4.846,-0.6526000000000001,-0.3801,0.38480000000000003,-0.01,0.011,-0.04
1670356152.719966,-9.21,-0.389,4.819,-0.6497,-0.38,0.3856,0.006,0.022,-0.048
1670356152.759966,-9.271,-0.449,4.801,-0.6509,-0.3801,0.3855,0.016,0.023,-0.058
1670356152.7999659,-9.182,-0.384,4.812,-0.6529,-0.3816,0.38330000000000003,0.0,0.021,-0.049
1670356152.839966,-9.187,-0.435,4.805,-0.6518,-0.3819,0.38420000000000004,0.001,0.016,-0.045
1670356152.879966,-9.223,-0.40800000000000003,4.798,-0.6515000000000001,-0.37870000000000004,0.38420000000000004,0.006,0.013000000000000001,-0.056
1670356152.919966,-9.255,-0.41000000000000003,4.801,-0.6516000000000001,-0.3811,0.3855,0.003,0.01,-0.052000000000000005
1670356152.959966,-9.167,-0.46,4.795,-0.6504,-0.3804,0.3835,-0.005,0.012,-0.055
1670356152.999966,-9.169,-0.358,4.788,-0.6492,-0.3809,0.38480000000000003,0.003,0.011,-0.053
1670356153.0399659,-9.224,-0.47200000000000003,4.759,-0.6505000000000001,-0.38170000000000004,0.38520000000000004,0.005,0.027,-0.052000000000000005
1670356153.079966,-9.201,-0.404,4.799,-0.6499,-0.3783,0.3849,0.007,0.026000000000000002,-0.052000000000000005
1670356153.119966,-9.15,-0.429,4.748,-0.6517000000000001,-0.38070000000000004,0.38580000000000003,-0.006,0.016,-0.041
1670356153.159966,-9.219,-0.398,4.777,-0.6508,-0.37970000000000004,0.3845,0.011,0.0,-0.056
1670356153.199966,-9.214,-0.404,4.771,-0.6527000000000001,-0.38470000000000004,0.388,0.014,0.004,-0.066
1670356153.239965,-9.218,-0.457,4.7860000000000005,-0.6491,-0.37870000000000004,0.38670000000000004,-0.001,0.006,-0.052000000000000005
1670356153.279965,-9.22,-0.451,4.8,-0.6523,-0.3789,0.38630000000000003,-0.007,0.013000000000000001,-0.041
1670356153.319965,-9.215,-0.401,4.792,-0.6537000000000001,-0.3793,0.3856,-0.002,0.013000000000000001,-0.054
1670356153.3599648,-9.223,-0.435,4.798,-0.6522,-0.377,0.38670000000000004,0.007,0.016,-0.06
1670356153.399965,-9.200000000000001,-0.444,4.783,-0.6524,-0.3806,0.38570000000000004,0.004,0.017,-0.054
1670356153.439965,-9.203,-0.449,4.824,-0.6535000000000001,-0.3819,0.38470000000000004,0.005,0.011,-0.05
1670356153.479965,-9.19,-0.42,4.8100000000000005,-0.6526000000000001,-0.3784,0.38630000000000003,0.002,0.016,-0.054
1670356153.519965,-9.193,-0.40700000000000003,4.815,-0.6538,-0.3806,0.38520000000000004,0.011,0.018000000000000002,-0.055
1670356153.559965,-9.188,-0.461,4.846,-0.6515000000000001,-0.3799,0.38670000000000004,0.007,0.019,-0.049
1670356153.5999649,-9.251,-0.45,4.822,-0.6515000000000001,-0.3795,0.3864,-0.006,0.024,-0.041
1670356153.639965,-9.262,-0.41100000000000003,4.7940000000000005,-0.6531,-0.38120000000000004,0.383,-0.006,0.034,-0.045
1670356153.679965,-9.146,-0.4,4.7090000000000005,-0.652,-0.37870000000000004,0.385,0.0,0.026000000000000002,-0.058
1670356153.719965,-9.176,-0.433,4.7330000000000005,-0.6516000000000001,-0.3804,0.3861,0.0,0.022,-0.046
1670356153.759965,-9.234,-0.431,4.785,-0.6526000000000001,-0.3776,0.38580000000000003,0.005,0.013000000000000001,-0.053
1670356153.799965,-9.233,-0.426,4.828,-0.6536000000000001,-0.3814,0.38430000000000003,0.013000000000000001,0.015,-0.055
1670356153.8399649,-9.175,-0.496,4.833,-0.6507000000000001,-0.37870000000000004,0.3831,0.0,0.015,-0.057
1670356153.879965,-9.173,-0.422,4.843,-0.6524,-0.3788,0.3875,-0.001,0.008,-0.036000000000000004
1670356153.919965,-9.226,-0.47600000000000003,4.774,-0.653,-0.3794,0.38320000000000004,0.009000000000000001,0.022,-0.051000000000000004
1670356153.959965,-9.221,-0.41500000000000004,4.738,-0.6551,-0.3795,0.38720000000000004,0.008,0.035,-0.053
1670356153.999965,-9.162,-0.442,4.816,-0.652,-0.37920000000000004,0.3829,0.006,0.027,-0.04
1670356154.039965,-9.219,-0.417,4.793,-0.6513,-0.3825,0.3859,0.003,0.023,-0.049
1670356154.0799649,-9.252,-0.41100000000000003,4.751,-0.6519,-0.3796,0.38580000000000003,0.011,0.018000000000000002,-0.061
1670356154.119965,-9.225,-0.459,4.783,-0.6519,-0.3809,0.3846,0.016,0.022,-0.051000000000000004
1670356154.159965,-9.225,-0.435,4.7700000000000005,-0.6544,-0.38180000000000003,0.385,0.0,0.016,-0.042
1670356154.199965,-9.205,-0.423,4.812,-0.6516000000000001,-0.3805,0.38170000000000004,0.0,0.022,-0.047
1670356154.239965,-9.22,-0.437,4.813,-0.6523,-0.3819,0.3845,0.005,0.022,-0.054
1670356154.279964,-9.215,-0.419,4.771,-0.6516000000000001,-0.378,0.3846,0.016,0.017,-0.057
1670356154.319964,-9.212,-0.439,4.755,-0.6508,-0.3789,0.38630000000000003,0.005,0.014,-0.047
1670356154.359964,-9.192,-0.439,4.803,-0.6524,-0.3805,0.3924,0.007,0.016,-0.048
1670356154.3999639,-9.219,-0.41600000000000004,4.7700000000000005,-0.6497,-0.38230000000000003,0.3859,0.013000000000000001,0.016,-0.048
1670356154.439964,-9.185,-0.422,4.7860000000000005,-0.6544,-0.3796,0.3845,0.003,0.018000000000000002,-0.052000000000000005
1670356154.479964,-9.199,-0.4,4.797,-0.6516000000000001,-0.38170000000000004,0.3831,0.002,0.02,-0.04
1670356154.519964,-9.26,-0.442,4.768,-0.6523,-0.3809,0.3819,0.012,0.033,-0.05
1670356154.559964,-9.182,-0.372,4.75,-0.6521,-0.38,0.38420000000000004,0.018000000000000002,0.023,-0.049
1670356154.599964,-9.199,-0.452,4.7540000000000004,-0.6529,-0.3814,0.39530000000000004,0.006,0.019,-0.046
1670356154.6399639,-9.217,-0.399,4.807,-0.6532,-0.37920000000000004,0.38520000000000004,-0.004,0.011,-0.046
1670356154.679964,-9.217,-0.404,4.7860000000000005,-0.6532,-0.3816,0.4043,0.01,0.008,-0.056
1670356154.719964,-9.236,-0.404,4.801,-0.6529,-0.3816,0.4043,0.006,0.008,-0.053
1670356154.759964,-9.188,-0.439,4.801,-0.6512,-0.3809,0.38220000000000004,-0.005,0.016,-0.051000000000000004
1670356154.799964,-9.175,-0.405,4.814,-0.6543,-0.3801,0.36510000000000004,0.006,0.019,-0.042
1670356154.839964,-9.221,-0.47200000000000003,4.732,-0.6538,-0.3809,0.3835,0.009000000000000001,0.034,-0.043000000000000003
1670356154.8799639,-9.235,-0.396,4.785,-0.6496000000000001,-0.3815,0.3935,0.011,0.032,-0.039
1670356154.919964,-9.205,-0.398,4.791,-0.6526000000000001,-0.3825,0.3826,0.009000000000000001,0.016,-0.035
1670356154.959964,-9.208,-0.366,4.8,-0.6496000000000001,-0.38270000000000004,0.3855,0.02,0.012,-0.048
1670356154.999964,-9.239,-0.375,4.7540000000000004,-0.653,-0.3826,0.3835,0.021,0.003,-0.055
1670356155.039964,-9.227,-0.427,4.785,-0.6515000000000001,-0.3814,0.3854,0.004,0.007,-0.047
1670356155.079964,-9.229000000000001,-0.378,4.756,-0.6524,-0.3783,0.3854,-0.004,0.011,-0.045
1670356155.119964,-9.198,-0.364,4.758,-0.6638000000000001,-0.38620000000000004,0.38630000000000003,0.005,0.014,-0.052000000000000005
1670356155.159964,-9.196,-0.37,4.841,-0.6513,-0.38280000000000003,0.3854,0.011,0.017,-0.054
1670356155.199964,-9.226,-0.392,4.807,-0.6557000000000001,-0.3835,0.38720000000000004,0.003,0.016,-0.05
1670356155.239964,-9.194,-0.404,4.807,-0.6526000000000001,-0.38070000000000004,0.3839,0.002,0.011,-0.048
1670356155.279964,-9.198,-0.368,4.821,-0.6643,-0.3845,0.3961,0.006,0.011,-0.05
1670356155.319963,-9.217,-0.387,4.752,-0.6513,-0.3819,0.3841,0.004,0.022,-0.055
1670356155.359963,-9.256,-0.448,4.809,-0.6642,-0.385,0.387,0.02,0.034,-0.051000000000000004
1670356155.399963,-9.255,-0.427,4.805,-0.6529,-0.3834,0.3866,0.01,0.013000000000000001,-0.05
1670356155.4399629,-9.255,-0.294,4.801,-0.6527000000000001,-0.3819,0.38630000000000003,0.007,0.015,-0.044
1670356155.479963,-9.218,-0.453,4.71,-0.6529,-0.38220000000000004,0.38480000000000003,0.003,0.02,-0.053
1670356155.519963,-9.167,-0.35000000000000003,4.742,-0.651,-0.383,0.3866,0.009000000000000001,0.013000000000000001,-0.056
1670356155.559963,-9.206,-0.368,4.799,-0.6515000000000001,-0.38280000000000003,0.3856,0.005,0.01,-0.047
1670356155.599963,-9.227,-0.378,4.7620000000000005,-0.6514,-0.38330000000000003,0.3854,0.011,0.003,-0.058
1670356155.639963,-9.229000000000001,-0.395,4.815,-0.6513,-0.3816,0.38630000000000003,0.006,0.008,-0.061
1670356155.6799629,-9.212,-0.437,4.8260000000000005,-0.6543,-0.38270000000000004,0.3836,0.003,0.012,-0.058
1670356155.719963,-9.221,-0.323,4.844,-0.6528,-0.3824,0.3861,0.003,0.022,-0.052000000000000005
1670356155.759963,-9.248,-0.40700000000000003,4.809,-0.6527000000000001,-0.3841,0.38730000000000003,0.004,0.026000000000000002,-0.049
1670356155.799963,-9.200000000000001,-0.374,4.807,-0.6527000000000001,-0.3831,0.3839,0.011,0.018000000000000002,-0.051000000000000004
1670356155.839963,-9.161,-0.383,4.804,-0.6517000000000001,-0.38330000000000003,0.3841,0.001,0.018000000000000002,-0.039
1670356155.879963,-9.203,-0.363,4.7780000000000005,-0.6529,-0.384,0.3865,0.005,0.01,-0.045
1670356155.919963,-9.237,-0.372,4.796,-0.6518,-0.3844,0.3829,0.011,0.008,-0.051000000000000004
1670356155.959963,-9.217,-0.405,4.776,-0.6518,-0.3801,0.383,-0.001,0.008,-0.053
1670356155.999963,-9.209,-0.389,4.823,-0.6516000000000001,-0.3808,0.3875,-0.016,0.012,-0.047
1670356156.039963,-9.176,-0.363,4.795,-0.6522,-0.38130000000000003,0.38520000000000004,0.0,0.013000000000000001,-0.047
1670356156.079963,-9.211,-0.367,4.768,-0.6554,-0.3825,0.3864,0.01,0.013000000000000001,-0.056
1670356156.119963,-9.193,-0.40800000000000003,4.797,-0.6522,-0.38120000000000004,0.3854,0.008,0.014,-0.05
1670356156.159963,-9.208,-0.39,4.796,-0.6534,-0.3811,0.3834,0.003,0.014,-0.045
1670356156.199963,-9.229000000000001,-0.357,4.798,-0.6536000000000001,-0.38380000000000003,0.3839,0.007,0.015,-0.047
1670356156.239963,-9.202,-0.384,4.825,-0.6514,-0.3814,0.3889,0.007,0.022,-0.059000000000000004
1670356156.279963,-9.208,-0.41300000000000003,4.791,-0.6528,-0.3834,0.3845,-0.002,0.025,-0.051000000000000004
1670356156.319963,-9.166,-0.396,4.787,-0.6525000000000001,-0.3859,0.38420000000000004,-0.011,0.016,-0.048
1670356156.359962,-9.217,-0.327,4.783,-0.6511,-0.3801,0.3864,-0.008,0.014,-0.041
1670356156.399962,-9.225,-0.427,4.785,-0.6538,-0.3819,0.3856,0.013000000000000001,0.025,-0.054
1670356156.439962,-9.165000000000001,-0.368,4.749,-0.6519,-0.383,0.38780000000000003,0.01,0.021,-0.063
1670356156.4799619,-9.173,-0.422,4.799,-0.6539,-0.3806,0.3845,-0.006,0.01,-0.049
1670356156.519962,-9.231,-0.375,4.791,-0.6519,-0.3826,0.3865,-0.001,0.002,-0.05
1670356156.559962,-9.232,-0.395,4.838,-0.6513,-0.3794,0.38720000000000004,0.007,0.001,-0.059000000000000004
1670356156.599962,-9.175,-0.454,4.849,-0.6521,-0.38280000000000003,0.3851,0.009000000000000001,0.002,-0.068
1670356156.639962,-9.182,-0.353,4.816,-0.6535000000000001,-0.38230000000000003,0.3861,-0.005,0.003,-0.047
1670356156.679962,-9.194,-0.462,4.787,-0.6538,-0.3809,0.3861,0.007,0.015,-0.049
1670356156.719962,-9.203,-0.384,4.864,-0.6514,-0.3809,0.38480000000000003,0.009000000000000001,0.025,-0.054
1670356156.759962,-9.169,-0.387,4.841,-0.6507000000000001,-0.3831,0.3875,0.003,0.022,-0.044
1670356156.799962,-9.168000000000001,-0.362,4.792,-0.6538,-0.3809,0.3866,0.011,0.017,-0.044
1670356156.839962,-9.189,-0.373,4.825,-0.6524,-0.3808,0.3884,0.013000000000000001,0.012,-0.051000000000000004
1670356156.879962,-9.215,-0.41100000000000003,4.82,-0.6516000000000001,-0.3806,0.364,0.009000000000000001,0.009000000000000001,-0.056
1670356156.919962,-9.199,-0.401,4.779,-0.6556000000000001,-0.3808,0.3695,-0.009000000000000001,0.015,-0.051000000000000004
1670356156.959962,-9.199,-0.401,4.852,-0.6556000000000001,-0.3808,0.3829,-0.01,0.016,-0.054
1670356156.999962,-9.188,-0.385,4.852,-0.6531,-0.3808,0.3829,-0.001,0.019,-0.058
1670356157.039962,-9.201,-0.398,4.824,-0.6544,-0.38220000000000004,0.3932,-0.002,0.015,-0.054
1670356157.079962,-9.171,-0.396,4.851,-0.6549,-0.38120000000000004,0.3901,-0.002,0.019,-0.06
1670356157.119962,-9.196,-0.423,4.8100000000000005,-0.6574,-0.3829,0.3855,-0.003,0.016,-0.058
1670356157.159962,-9.19,-0.423,4.852,-0.6521,-0.3803,0.38880000000000003,0.003,0.015,-0.051000000000000004
1670356157.199962,-9.184000000000001,-0.418,4.874,-0.6689,-0.3845,0.39530000000000004,0.001,0.013000000000000001,-0.053
1670356157.239962,-9.166,-0.418,4.836,-0.6549,-0.3803,0.3865,0.0,0.014,-0.044
1670356157.279962,-9.237,-0.425,4.83,-0.6571,-0.3788,0.38770000000000004,0.011,0.02,-0.047
1670356157.319962,-9.24,-0.395,4.847,-0.6541,-0.38320000000000004,0.38730000000000003,0.01,0.022,-0.052000000000000005
1670356157.359962,-9.135,-0.392,4.806,-0.6555000000000001,-0.38230000000000003,0.39530000000000004,0.005,0.015,-0.051000000000000004
1670356157.399961,-9.155,-0.40700000000000003,4.761,-0.6593,-0.383,0.38780000000000003,-0.002,0.01,-0.044
1670356157.439961,-9.203,-0.4,4.825,-0.6563,-0.382,0.3912,0.005,0.01,-0.057
1670356157.479961,-9.237,-0.422,4.894,-0.6542,-0.37970000000000004,0.387,0.01,0.008,-0.056
1670356157.5199609,-9.127,-0.451,4.859,-0.6523,-0.3801,0.388,0.0,0.008,-0.055
1670356157.559961,-9.115,-0.397,4.87,-0.6537000000000001,-0.3814,0.3859,0.005,0.009000000000000001,-0.046
1670356157.599961,-9.206,-0.454,4.846,-0.6543,-0.3814,0.38970000000000005,0.009000000000000001,0.028,-0.054
1670356157.639961,-9.189,-0.40700000000000003,4.845,-0.6531,-0.38,0.3879,0.006,0.029,-0.047
1670356157.679961,-9.144,-0.436,4.8500000000000005,-0.6524,-0.3805,0.386,0.0,0.017,-0.045
1670356157.719961,-9.162,-0.34800000000000003,4.822,-0.6518,-0.3814,0.38780000000000003,0.009000000000000001,0.015,-0.055
1670356157.759961,-9.197000000000001,-0.387,4.845,-0.6531,-0.3821,0.38780000000000003,0.019,0.012,-0.062
1670356157.799961,-9.189,-0.448,4.8340000000000005,-0.6519,-0.3819,0.38780000000000003,0.007,0.014,-0.051000000000000004
1670356157.839961,-9.182,-0.41500000000000004,4.853,-0.6547000000000001,-0.3816,0.3866,-0.008,0.012,-0.047
1670356157.799961,-9.169,-0.393,4.822,-0.6524,-0.38020000000000004,0.3854,0.0,0.013000000000000001,-0.054
1670356157.839961,-9.200000000000001,-0.401,4.854,-0.6542,-0.38270000000000004,0.387,0.002,0.016,-0.06
1670356157.879961,-9.179,-0.40700000000000003,4.874,-0.6523,-0.3803,0.385,0.002,0.019,-0.055
1670356157.919961,-9.174,-0.424,4.878,-0.6564,-0.38070000000000004,0.3891,0.002,0.016,-0.046
1670356157.959961,-9.17,-0.41100000000000003,4.829,-0.6544,-0.3805,0.3861,0.006,0.018000000000000002,-0.05
1670356157.999961,-9.168000000000001,-0.419,4.852,-0.654,-0.38120000000000004,0.3865,0.004,0.012,-0.05
1670356158.039961,-9.145,-0.447,4.855,-0.6538,-0.3786,0.3889,0.001,0.012,-0.051000000000000004
1670356158.079961,-9.206,-0.444,4.88,-0.6521,-0.3815,0.38670000000000004,-0.001,0.018000000000000002,-0.037
1670356158.119961,-9.25,-0.357,4.8340000000000005,-0.6526000000000001,-0.381,0.3859,0.012,0.031,-0.044
1670356158.159961,-9.135,-0.384,4.8100000000000005,-0.6494,-0.383,0.38620000000000004,0.02,0.033,-0.056
1670356158.199961,-9.151,-0.453,4.769,-0.6529,-0.3806,0.38570000000000004,0.005,0.016,-0.044
1670356158.239961,-9.194,-0.378,4.843,-0.657,-0.38170000000000004,0.38580000000000003,0.0,0.015,-0.047
1670356158.279961,-9.209,-0.368,4.854,-0.6521,-0.3819,0.3856,0.005,0.006,-0.055
1670356158.319961,-9.169,-0.404,4.872,-0.6603,-0.38120000000000004,0.38680000000000003,0.005,0.013000000000000001,-0.059000000000000004
1670356158.359961,-9.123,-0.441,4.871,-0.6581,-0.3816,0.3894,-0.006,0.025,-0.061
1670356158.399961,-9.205,-0.41500000000000004,4.8500000000000005,-0.6535000000000001,-0.3815,0.3874,0.007,0.018000000000000002,-0.044
1670356158.43996,-9.215,-0.395,4.859,-0.6538,-0.3799,0.3866,0.014,0.031,-0.052000000000000005
1670356158.47996,-9.147,-0.438,4.862,-0.6541,-0.3814,0.3881,0.0,0.038,-0.046
1670356158.51996,-9.184000000000001,-0.384,4.849,-0.6521,-0.3819,0.38580000000000003,0.004,0.023,-0.043000000000000003
1670356158.55996,-9.202,-0.374,4.809,-0.6521,-0.38170000000000004,0.3861,0.017,0.016,-0.055
1670356158.59996,-9.193,-0.424,4.848,-0.6521,-0.38070000000000004,0.387,0.012,0.011,-0.055
1670356158.63996,-9.19,-0.449,4.8340000000000005,-0.6517000000000001,-0.3809,0.38470000000000004,-0.001,0.017,-0.047
1670356158.67996,-9.182,-0.393,4.807,-0.6515000000000001,-0.3834,0.38830000000000003,-0.005,0.016,-0.048
1670356158.71996,-9.206,-0.376,4.846,-0.6521,-0.3819,0.3875,0.001,0.022,-0.049
1670356158.75996,-9.212,-0.426,4.844,-0.6547000000000001,-0.3809,0.3871,0.007,0.018000000000000002,-0.052000000000000005
1670356158.79996,-9.163,-0.404,4.832,-0.6524,-0.3805,0.38720000000000004,0.007,0.014,-0.046
1670356158.83996,-9.185,-0.398,4.8580000000000005,-0.6528,-0.3804,0.3869,0.007,0.01,-0.052000000000000005
1670356158.87996,-9.188,-0.42,4.884,-0.6523,-0.3819,0.388,0.01,0.014,-0.056
1670356158.91996,-9.196,-0.40700000000000003,4.824,-0.6532,-0.3809,0.3875,0.008,0.023,-0.059000000000000004
1670356158.95996,-9.133000000000001,-0.41400000000000003,4.867,-0.6516000000000001,-0.3799,0.3889,-0.003,0.016,-0.053
1670356158.99996,-9.191,-0.397,4.862,-0.6507000000000001,-0.3806,0.388,-0.006,0.025,-0.04
1670356159.03996,-9.217,-0.439,4.822,-0.6529,-0.3808,0.4116,0.0,0.034,-0.036000000000000004
1670356159.07996,-9.152000000000001,-0.343,4.797,-0.6576000000000001,-0.3815,0.3805,0.023,0.021,-0.058
1670356159.11996,-9.152000000000001,-0.431,4.748,-0.6576000000000001,-0.382,0.37420000000000003,0.023,0.009000000000000001,-0.063
1670356159.15996,-9.132,-0.431,4.856,-0.6519,-0.382,0.40840000000000004,0.014,0.0,-0.062
1670356159.19996,-9.19,-0.41600000000000004,4.856,-0.6623,-0.38780000000000003,0.40840000000000004,0.01,0.0,-0.053
1670356159.23996,-9.214,-0.375,4.874,-0.6548,-0.3839,0.3815,0.012,0.004,-0.049
1670356159.27996,-9.131,-0.41000000000000003,4.882,-0.6667000000000001,-0.3836,0.41600000000000004,0.006,0.003,-0.063
1670356159.31996,-9.097,-0.429,4.893,-0.6579,-0.3811,0.3805,0.013000000000000001,0.015,-0.046
1670356159.35996,-9.191,-0.443,4.873,-0.6555000000000001,-0.38380000000000003,0.3891,0.012,0.025,-0.045
1670356159.39996,-9.188,-0.376,4.883,-0.6547000000000001,-0.38280000000000003,0.3921,0.009000000000000001,0.025,-0.047
1670356159.43996,-9.141,-0.402,4.849,-0.6534,-0.382,0.38580000000000003,0.0,0.022,-0.045
1670356159.479959,-9.157,-0.374,4.838,-0.6533,-0.38330000000000003,0.3855,0.001,0.014,-0.05
1670356159.519959,-9.197000000000001,-0.362,4.857,-0.6566000000000001,-0.3806,0.391,0.011,0.014,-0.062
1670356159.559959,-9.18,-0.41400000000000003,4.8500000000000005,-0.6507000000000001,-0.3811,0.3855,-0.002,0.015,-0.059000000000000004
1670356159.599959,-9.17,-0.436,4.862,-0.6529,-0.3821,0.3881,-0.01,0.02,-0.05
1670356159.639959,-9.179,-0.426,4.864,-0.653,-0.3819,0.3895,-0.006,0.011,-0.057
1670356159.679959,-9.182,-0.386,4.84,-0.6554,-0.3806,0.38770000000000004,0.0,0.015,-0.054
1670356159.719959,-9.192,-0.404,4.819,-0.6541,-0.3803,0.3886,0.013000000000000001,0.01,-0.053
1670356159.759959,-9.132,-0.419,4.925,-0.6514,-0.3808,0.38880000000000003,0.019,0.014,-0.058
1670356159.799959,-9.144,-0.453,4.883,-0.6541,-0.38320000000000004,0.3895,0.006,0.008,-0.036000000000000004
1670356159.839959,-9.163,-0.392,4.843,-0.6536000000000001,-0.38130000000000003,0.39,0.006,0.013000000000000001,-0.038
1670356159.879959,-9.142,-0.40800000000000003,4.831,-0.6549,-0.3803,0.3886,0.005,0.017,-0.057
1670356159.919959,-9.19,-0.433,4.87,-0.6546000000000001,-0.38170000000000004,0.388,-0.006,0.027,-0.057
1670356159.959959,-9.163,-0.402,4.846,-0.6543,-0.3794,0.3864,-0.02,0.023,-0.054
1670356159.999959,-9.122,-0.329,4.864,-0.657,-0.3826,0.3889,0.0,0.016,-0.043000000000000003
1670356160.039959,-9.173,-0.456,4.836,-0.6536000000000001,-0.3806,0.3916,0.005,0.023,-0.06
1670356160.079959,-9.125,-0.406,4.828,-0.6557000000000001,-0.3816,0.38670000000000004,0.003,0.019,-0.064
1670356160.119959,-9.139,-0.452,4.815,-0.6546000000000001,-0.3785,0.38780000000000003,-0.013000000000000001,0.009000000000000001,-0.044
1670356160.159959,-9.179,-0.40700000000000003,4.868,-0.6529,-0.3825,0.3879,-0.002,0.004,-0.056
1670356160.199959,-9.176,-0.427,4.892,-0.6541,-0.3793,0.3875,0.006,0.006,-0.059000000000000004
1670356160.239959,-9.129,-0.489,4.906,-0.6532,-0.3819,0.3875,0.002,0.001,-0.07
1670356160.279959,-9.132,-0.404,4.882,-0.6545000000000001,-0.3784,0.3885,0.001,0.006,-0.048
1670356160.319959,-9.172,-0.487,4.878,-0.6527000000000001,-0.37720000000000004,0.3895,0.006,0.017,-0.043000000000000003
1670356160.359959,-9.166,-0.41100000000000003,4.894,-0.6571,-0.38330000000000003,0.38770000000000004,0.016,0.03,-0.051000000000000004
1670356160.3999588,-9.157,-0.422,4.8790000000000004,-0.6634,-0.3849,0.39440000000000003,0.015,0.02,-0.043000000000000003
1670356160.439959,-9.145,-0.41500000000000004,4.888,-0.6526000000000001,-0.3814,0.3906,0.018000000000000002,0.016,-0.046
1670356160.479959,-9.202,-0.422,4.894,-0.6519,-0.3809,0.3875,0.015,0.008,-0.047
1670356160.519958,-9.176,-0.429,4.92,-0.6545000000000001,-0.3816,0.3902,0.01,0.01,-0.046
1670356160.559958,-9.147,-0.423,4.904,-0.655,-0.38220000000000004,0.3905,0.0,0.011,-0.047
1670356160.599958,-9.159,-0.417,4.885,-0.6535000000000001,-0.3811,0.38730000000000003,-0.005,0.021,-0.051000000000000004
1670356160.639958,-9.15,-0.379,4.869,-0.6552,-0.3815,0.3895,-0.003,0.023,-0.051000000000000004
1670356160.679958,-9.121,-0.444,4.937,-0.6527000000000001,-0.38170000000000004,0.3881,0.0,0.027,-0.056
1670356160.719958,-9.136000000000001,-0.453,4.9190000000000005,-0.6533,-0.3798,0.3885,-0.002,0.016,-0.053
1670356160.759958,-9.171,-0.40700000000000003,4.88,-0.6527000000000001,-0.37920000000000004,0.3911,-0.002,0.021,-0.05
1670356160.799958,-9.186,-0.438,4.898,-0.6555000000000001,-0.38170000000000004,0.3916,0.005,0.015,-0.052000000000000005
1670356160.839958,-9.144,-0.487,4.876,-0.6582,-0.3814,0.3899,0.005,0.015,-0.054
1670356160.879958,-9.154,-0.437,4.893,-0.6543,-0.3796,0.389,-0.001,0.014,-0.044
1670356160.919958,-9.173,-0.395,4.892,-0.6551,-0.383,0.3906,0.01,0.019,-0.035
1670356160.959958,-9.144,-0.47100000000000003,4.854,-0.6532,-0.38180000000000003,0.3874,0.016,0.03,-0.055
1670356160.999958,-9.087,-0.41100000000000003,4.846,-0.6519,-0.3805,0.3874,0.009000000000000001,0.025,-0.053
1670356161.039958,-9.153,-0.398,4.87,-0.6544,-0.38070000000000004,0.38920000000000005,0.001,0.013000000000000001,-0.04
1670356161.079958,-9.197000000000001,-0.40800000000000003,4.915,-0.6552,-0.38170000000000004,0.3889,0.007,0.011,-0.051000000000000004
1670356161.119958,-9.172,-0.40700000000000003,4.9350000000000005,-0.6509,-0.3819,0.3906,0.008,0.012,-0.054
1670356161.159958,-9.146,-0.468,4.928,-0.6523,-0.38,0.3912,-0.002,0.01,-0.059000000000000004
1670356161.1999578,-9.142,-0.341,4.899,-0.6538,-0.3798,0.3904,0.003,0.011,-0.049
1670356161.239958,-9.218,-0.444,4.8950000000000005,-0.666,-0.3839,0.3927,0.007,0.026000000000000002,-0.055
1670356161.279958,-9.133000000000001,-0.41600000000000004,4.833,-0.6555000000000001,-0.3811,0.39030000000000004,0.012,0.041,-0.05
1670356161.319958,-9.101,-0.401,4.8790000000000004,-0.6585000000000001,-0.38280000000000003,0.3922,-0.001,0.03,-0.041
1670356161.359958,-9.101,-0.387,4.891,-0.6585000000000001,-0.3824,0.39990000000000003,0.007,0.016,-0.054
1670356161.399958,-9.166,-0.387,4.836,-0.6528,-0.3824,0.39990000000000003,0.011,0.01,-0.055
1670356161.4399579,-9.168000000000001,-0.41400000000000003,4.836,-0.6551,-0.38270000000000004,0.4047,0.004,0.01,-0.047
1670356161.479958,-9.171,-0.447,4.844,-0.6543,-0.3815,0.38420000000000004,0.0,0.012,-0.052000000000000005
1670356161.519958,-9.179,-0.396,4.856,-0.6529,-0.38280000000000003,0.38670000000000004,0.01,0.023,-0.054
1670356161.559958,-9.15,-0.384,4.881,-0.6538,-0.38120000000000004,0.3889,0.009000000000000001,0.022,-0.054
1670356161.599958,-9.155,-0.40800000000000003,4.865,-0.653,-0.382,0.38880000000000003,0.009000000000000001,0.018000000000000002,-0.051000000000000004
1670356161.639957,-9.147,-0.417,4.912,-0.6529,-0.3811,0.3907,0.005,0.014,-0.047
1670356161.679957,-9.149000000000001,-0.406,4.855,-0.6541,-0.38170000000000004,0.3909,0.009000000000000001,0.015,-0.048
1670356161.719957,-9.158,-0.393,4.854,-0.653,-0.38170000000000004,0.3889,0.017,0.013000000000000001,-0.054
1670356161.759957,-9.121,-0.41400000000000003,4.889,-0.6537000000000001,-0.38220000000000004,0.3911,0.008,0.021,-0.059000000000000004
1670356161.799957,-9.120000000000001,-0.456,4.855,-0.6546000000000001,-0.3801,0.38970000000000005,0.007,0.012,-0.056
1670356161.839957,-9.188,-0.442,4.849,-0.6546000000000001,-0.38280000000000003,0.38780000000000003,0.011,0.017,-0.045
1670356161.879957,-9.215,-0.34600000000000003,4.918,-0.653,-0.38,0.3901,0.017,0.025,-0.052000000000000005
1670356161.919957,-9.111,-0.368,4.827,-0.6544,-0.3809,0.38930000000000003,0.015,0.019,-0.056
1670356161.959957,-9.138,-0.431,4.831,-0.6515000000000001,-0.3816,0.3879,0.002,0.013000000000000001,-0.041
1670356161.9999568,-9.163,-0.362,4.9,-0.6536000000000001,-0.3811,0.38930000000000003,0.01,0.006,-0.051000000000000004
1670356162.039957,-9.165000000000001,-0.372,4.885,-0.6533,-0.3811,0.391,0.01,0.009000000000000001,-0.058
1670356162.079957,-9.126,-0.425,4.897,-0.6607000000000001,-0.38120000000000004,0.38920000000000005,0.003,0.008,-0.056
1670356162.119957,-9.071,-0.393,4.888,-0.653,-0.382,0.3909,0.002,0.008,-0.048
1670356162.159957,-9.18,-0.422,4.894,-0.6543,-0.3816,0.391,0.009000000000000001,0.027,-0.052000000000000005
1670356162.199957,-9.185,-0.369,4.891,-0.6547000000000001,-0.38320000000000004,0.3911,0.011,0.032,-0.057
1670356162.2399569,-9.116,-0.395,4.862,-0.6616000000000001,-0.3846,0.3935,0.0,0.027,-0.039
1670356162.279957,-9.139,-0.377,4.862,-0.6531,-0.37920000000000004,0.3899,0.0,0.021,-0.045
1670356162.319957,-9.187,-0.368,4.828,-0.6544,-0.3826,0.38970000000000005,0.009000000000000001,0.013000000000000001,-0.054
1670356162.359957,-9.16,-0.423,4.848,-0.654,-0.38330000000000003,0.38780000000000003,0.003,0.015,-0.059000000000000004
1670356162.399957,-9.163,-0.421,4.869,-0.6561,-0.3825,0.3929,-0.008,0.014,-0.048
1670356162.439957,-9.163,-0.384,4.865,-0.6537000000000001,-0.3809,0.3889,-0.007,0.014,-0.05
1670356162.4799569,-9.166,-0.379,4.882,-0.6546000000000001,-0.3819,0.38780000000000003,0.006,0.018000000000000002,-0.051000000000000004
1670356162.519957,-9.172,-0.41000000000000003,4.896,-0.6526000000000001,-0.3831,0.38970000000000005,0.008,0.015,-0.058
1670356162.559957,-9.145,-0.40800000000000003,4.876,-0.6542,-0.3826,0.38930000000000003,0.005,0.011,-0.054
1670356162.599957,-9.147,-0.42,4.939,-0.6533,-0.3803,0.3889,0.001,0.018000000000000002,-0.053
1670356162.639957,-9.165000000000001,-0.394,4.864,-0.6558,-0.3801,0.3916,0.004,0.018000000000000002,-0.061
1670356162.679956,-9.165000000000001,-0.41000000000000003,4.884,-0.6531,-0.3814,0.3885,0.0,0.021,-0.055
1670356162.719956,-9.172,-0.439,4.846,-0.654,-0.3789,0.3864,-0.005,0.025,-0.054
1670356162.759956,-9.159,-0.421,4.8870000000000005,-0.6537000000000001,-0.38180000000000003,0.3885,-0.016,0.02,-0.063
1670356162.7999558,-9.207,-0.329,4.946,-0.6551,-0.3775,0.3895,0.005,0.015,-0.045
1670356162.839956,-9.17,-0.487,4.806,-0.6535000000000001,-0.38,0.38830000000000003,0.008,0.019,-0.064
1670356162.879956,-9.102,-0.417,4.804,-0.6545000000000001,-0.38220000000000004,0.38630000000000003,0.003,0.016,-0.058
1670356162.919956,-9.137,-0.417,4.873,-0.6552,-0.3809,0.3861,0.003,0.008,-0.046
1670356162.959956,-9.159,-0.436,4.898,-0.6548,-0.37920000000000004,0.38770000000000004,0.007,0.001,-0.057
1670356162.999956,-9.17,-0.435,4.901,-0.6551,-0.38170000000000004,0.3901,0.011,0.001,-0.065
1670356163.0399559,-9.128,-0.49,4.906,-0.6529,-0.38,0.38720000000000004,0.005,0.002,-0.064
1670356163.079956,-9.14,-0.374,4.882,-0.6543,-0.3815,0.39430000000000004,0.005,0.005,-0.047
1670356163.119956,-9.147,-0.46,4.884,-0.6546000000000001,-0.3808,0.38970000000000005,0.015,0.018000000000000002,-0.05
1670356163.159956,-9.126,-0.428,4.8790000000000004,-0.6577000000000001,-0.3805,0.3902,0.016,0.033,-0.051000000000000004
1670356163.199956,-9.129,-0.419,4.929,-0.6547000000000001,-0.3794,0.3905,0.008,0.024,-0.039
1670356163.239956,-9.163,-0.393,4.9,-0.6549,-0.3798,0.3876,0.009000000000000001,0.026000000000000002,-0.037
1670356163.2799559,-9.167,-0.40700000000000003,4.871,-0.6543,-0.38170000000000004,0.3904,0.024,0.023,-0.062
1670356163.319956,-9.147,-0.454,4.861,-0.6582,-0.3825,0.3925,0.014,0.017,-0.057
1670356163.359956,-9.167,-0.424,4.851,-0.6545000000000001,-0.38120000000000004,0.3871,-0.004,0.026000000000000002,-0.052000000000000005
1670356163.399956,-9.144,-0.398,4.865,-0.6565000000000001,-0.3795,0.387,-0.008,0.016,-0.051000000000000004
