timestamp,acc_x,acc_y,acc_z,magn_x,magn_y,magn_z,gyro_x,gyro_y,gyro_z
1670266377.4,-9.928,0.005,2.87,0.8579,0.4818,-0.027800000000000002,-0.082,0.007,-0.02
1670266377.44,-9.917,0.029,2.852,0.8567,0.4833,-0.026600000000000002,-0.08,0.006,-0.013000000000000001
1670266377.48,-9.879,0.01,2.775,0.8598,0.4842,-0.025500000000000002,-0.078,0.008,-0.01
1670266377.52,-9.925,0.027,2.844,0.8589,0.48040000000000005,-0.0269,-0.08,0.004,-0.012
1670266377.559999,-9.886000000000001,0.0,2.891,0.8572000000000001,0.4838,-0.023700000000000002,-0.079,0.007,-0.015
1670266377.599999,-9.919,-0.039,2.806,0.8593000000000001,0.4812,-0.023700000000000002,-0.077,0.006,-0.013000000000000001
1670266377.639999,-9.915000000000001,0.07100000000000001,2.927,0.8567,0.4823,-0.0341,-0.079,-0.003,-0.022
1670266377.6799989,-9.968,0.001,2.847,0.8564,0.4812,-0.0274,-0.062,0.01,-0.002
1670266377.719999,-9.968,0.009000000000000001,2.795,0.8564,0.4817,-0.0318,-0.081,0.004,-0.005
1670266377.759999,-9.833,0.009000000000000001,2.842,0.859,0.4817,-0.0187,-0.089,0.014,-0.017
1670266377.799999,-9.85,0.017,2.842,0.8545,0.48200000000000004,-0.0187,-0.091,0.0,-0.02
1670266377.839999,-9.837,0.023,2.8120000000000003,0.8586,0.4808,-0.033600000000000005,-0.081,-0.006,-0.005
1670266377.879999,-9.964,0.054,2.809,0.8572000000000001,0.4813,-0.0313,-0.067,0.034,-0.01
1670266377.919999,-9.851,-0.063,2.898,0.8454,0.4776,-0.0228,-0.082,0.009000000000000001,-0.013000000000000001
1670266377.959999,-9.845,0.035,2.819,0.8528,0.48200000000000004,-0.0426,-0.083,0.002,-0.009000000000000001
1670266377.999999,-9.896,-0.001,2.775,0.8562000000000001,0.4824,-0.0134,-0.081,-0.007,-0.014
1670266378.039999,-9.921,0.02,2.9330000000000003,0.8568,0.4828,-0.02,-0.056,0.003,-0.023
1670266378.079999,-9.898,0.01,2.847,0.8576,0.48190000000000005,-0.027600000000000003,-0.068,-0.01,-0.021
1670266378.119999,-9.852,0.02,2.828,0.8589,0.48450000000000004,-0.025500000000000002,-0.07200000000000001,-0.005,-0.016
1670266378.159999,-9.877,-0.006,2.931,0.8480000000000001,0.48090000000000005,-0.0164,-0.07200000000000001,0.0,-0.014
1670266378.199999,-9.889,0.002,2.857,0.8581000000000001,0.4848,-0.0273,-0.088,0.002,-0.016
1670266378.239999,-9.922,-0.007,2.894,0.8602000000000001,0.4854,-0.027100000000000003,-0.08,0.015,-0.006
1670266378.279999,-9.889,-0.019,2.898,0.8571000000000001,0.4833,-0.0256,-0.077,0.0,-0.008
1670266378.319999,-9.918000000000001,-0.044,2.9330000000000003,0.8466,0.4802,-0.0201,-0.069,0.004,-0.017
1670266378.359999,-9.854000000000001,-0.008,2.833,0.8566,0.4827,-0.026600000000000002,-0.08,-0.003,-0.007
1670266378.399999,-9.902000000000001,0.007,2.852,0.8578,0.48300000000000004,-0.0257,-0.063,0.009000000000000001,-0.008
1670266378.439999,-9.848,0.01,2.863,0.8551000000000001,0.48200000000000004,-0.0281,-0.066,0.003,-0.026000000000000002
1670266378.479999,-9.826,0.023,2.782,0.859,0.4848,-0.024900000000000002,-0.064,0.016,-0.012
1670266378.519999,-9.759,-0.006,2.802,0.8598,0.4854,-0.025400000000000002,-0.08,0.002,-0.01
1670266378.559999,-9.997,0.025,2.964,0.8586,0.4824,-0.0275,-0.069,0.027,0.0
1670266378.599998,-9.919,0.002,2.854,0.8602000000000001,0.4817,-0.0263,-0.083,0.005,-0.02
1670266378.639998,-9.787,0.015,2.798,0.8557,0.4839,-0.0253,-0.08600000000000001,0.006,-0.012
1670266378.679998,-9.886000000000001,0.018000000000000002,2.854,0.8587,0.4838,-0.0267,-0.085,0.01,-0.014
1670266378.719998,-9.855,0.04,2.815,0.8543000000000001,0.48260000000000003,-0.0247,-0.078,0.018000000000000002,-0.004
1670266378.759998,-9.955,-0.022,2.86,0.8579,0.4839,-0.0245,-0.08,0.019,-0.015
1670266378.799998,-9.875,0.045,2.7800000000000002,0.8580000000000001,0.48200000000000004,-0.0269,-0.077,0.018000000000000002,-0.013000000000000001
1670266378.839998,-9.855,0.015,2.811,0.8581000000000001,0.48310000000000003,-0.027700000000000002,-0.089,0.012,-0.009000000000000001
1670266378.879998,-9.833,0.052000000000000005,2.737,0.8528,0.4829,-0.026500000000000003,-0.082,0.01,-0.016
1670266378.919998,-9.899000000000001,0.01,2.875,0.8555,0.4827,-0.0269,-0.07200000000000001,0.005,-0.018000000000000002
1670266378.959998,-9.889,0.011,2.793,0.8580000000000001,0.4812,-0.024900000000000002,-0.074,0.006,-0.007
1670266378.999998,-9.861,0.036000000000000004,2.84,0.8591000000000001,0.4822,-0.024900000000000002,-0.075,0.0,-0.014
1670266379.039998,-9.879,-0.017,2.84,0.8573000000000001,0.4823,-0.0286,-0.08,0.001,-0.022
1670266379.079998,-9.91,0.011,2.813,0.8588,0.48260000000000003,-0.0296,-0.075,0.008,-0.017
1670266379.119998,-9.852,0.03,2.819,0.8578,0.48450000000000004,-0.0274,-0.08,0.002,-0.012
1670266379.159998,-9.921,-0.005,2.872,0.8597,0.48350000000000004,-0.028900000000000002,-0.08700000000000001,0.004,-0.014
1670266379.199998,-9.876,0.044,2.872,0.8568,0.4834,-0.0279,-0.091,0.015,-0.006
1670266379.239998,-9.870000000000001,-0.005,2.839,0.8576,0.4852,-0.0252,-0.076,0.012,-0.02
1670266379.279998,-9.986,-0.023,2.846,0.8562000000000001,0.4854,-0.0262,-0.09,0.029,-0.012
1670266379.319998,-9.844,0.034,2.851,0.8584,0.4857,-0.0264,-0.063,0.021,-0.011
1670266379.359998,-9.888,0.055,2.851,0.8574,0.48400000000000004,-0.0274,-0.108,0.026000000000000002,-0.001
1670266379.399998,-9.914,-0.08700000000000001,2.857,0.8576,0.48040000000000005,-0.0262,-0.158,-0.036000000000000004,0.042
1670266379.439998,-9.928,0.079,2.785,0.8559,0.4833,-0.029,-0.074,0.023,-0.04
1670266379.479998,-9.847,0.005,2.847,0.8619,0.4844,-0.0273,-0.073,0.0,-0.031
1670266379.519998,-9.931000000000001,0.011,2.864,0.8576,0.48410000000000003,-0.0281,-0.074,0.009000000000000001,-0.018000000000000002
1670266379.559998,-9.915000000000001,-0.04,2.87,0.8559,0.4854,-0.0275,-0.083,0.022,-0.019
1670266379.599998,-9.927,0.06,2.873,0.8588,0.4849,-0.0261,-0.067,0.011,-0.011
1670266379.639997,-9.987,-0.013000000000000001,2.832,0.8576,0.48350000000000004,-0.028300000000000002,-0.031,0.027,-0.027
1670266379.679997,-9.904,0.056,2.91,0.8597,0.48210000000000003,-0.0285,-0.005,0.03,-0.052000000000000005
1670266379.719997,-9.84,-0.073,2.7920000000000003,0.8568,0.48450000000000004,-0.027100000000000003,-0.036000000000000004,0.016,-0.027
1670266379.759997,-9.91,-0.034,2.855,0.8586,0.48510000000000003,-0.026600000000000002,-0.069,0.012,-0.022
1670266379.799997,-9.818,0.032,2.782,0.8564,0.4839,-0.0279,-0.069,-0.001,-0.016
1670266379.839997,-9.862,-0.005,2.7920000000000003,0.8572000000000001,0.48310000000000003,-0.025900000000000003,-0.099,-0.016,0.005
1670266379.879997,-9.916,0.024,2.827,0.8539,0.4827,-0.0263,-0.094,0.012,-0.006
1670266379.919997,-9.891,-0.002,2.863,0.8559,0.4824,-0.029500000000000002,-0.085,0.008,-0.022
1670266379.959997,-9.898,0.047,2.727,0.8594,0.4829,-0.027800000000000002,-0.076,0.024,-0.019
1670266379.999997,-9.884,0.001,2.819,0.8588,0.48450000000000004,-0.0274,-0.098,-0.006,-0.012
1670266380.039997,-9.832,0.038,2.714,0.8551000000000001,0.4838,-0.0256,-0.079,-0.003,-0.014
1670266380.079997,-9.859,-0.053,2.791,0.8572000000000001,0.48560000000000003,-0.0252,-0.08,0.014,-0.027
1670266380.119997,-9.884,0.12,2.83,0.8574,0.4857,-0.025500000000000002,-0.07200000000000001,-0.009000000000000001,-0.004
1670266380.159997,-9.927,-0.023,2.73,0.8569,0.48090000000000005,-0.028900000000000002,-0.07100000000000001,-0.006,-0.019
1670266380.199997,-9.853,-0.018000000000000002,2.819,0.8564,0.4857,-0.024900000000000002,-0.076,0.005,-0.019
1670266380.239997,-9.862,-0.013000000000000001,2.7720000000000002,0.8603000000000001,0.48510000000000003,-0.0253,-0.091,-0.005,-0.011
1670266380.279997,-9.895,0.012,2.828,0.8576,0.4823,-0.0275,-0.09,-0.008,-0.012
1670266380.319997,-9.891,0.013000000000000001,2.836,0.8563000000000001,0.4862,-0.026600000000000002,-0.073,0.007,-0.022
1670266380.359997,-9.858,-0.03,2.823,0.859,0.48560000000000003,-0.0257,-0.079,-0.003,-0.018000000000000002
1670266380.399997,-9.85,0.02,2.883,0.8557,0.4854,-0.0274,-0.075,0.002,-0.007
1670266380.439997,-9.865,-0.02,2.821,0.8599,0.48600000000000004,-0.0247,-0.085,0.006,-0.001
1670266380.479997,-9.913,0.014,2.815,0.8567,0.48400000000000004,-0.027700000000000002,-0.08700000000000001,0.003,-0.014
1670266380.519997,-9.862,-0.011,2.859,0.8578,0.48210000000000003,-0.025500000000000002,-0.082,0.0,-0.022
1670266380.5599968,-9.898,-0.005,2.857,0.8559,0.48350000000000004,-0.0244,-0.076,-0.006,-0.01
1670266380.599997,-9.888,-0.01,2.821,0.8561000000000001,0.4838,-0.025500000000000002,-0.07,0.001,-0.034
1670266380.639997,-9.915000000000001,-0.033,2.927,0.8586,0.48200000000000004,-0.0257,-0.077,0.012,-0.018000000000000002
1670266380.679996,-9.873,-0.025,2.775,0.8583000000000001,0.4838,-0.0269,-0.076,0.014,-0.016
1670266380.719996,-9.903,-0.019,2.876,0.8574,0.48750000000000004,-0.0268,-0.085,0.006,-0.014
1670266380.759996,-9.887,0.008,2.858,0.8595,0.4837,-0.028300000000000002,-0.08700000000000001,0.0,0.002
1670266380.799996,-9.847,-0.02,2.867,0.8555,0.48450000000000004,-0.0291,-0.08600000000000001,0.009000000000000001,-0.024
1670266380.839996,-9.872,-0.038,2.822,0.8592000000000001,0.4832,-0.0233,-0.078,0.014,-0.02
1670266380.879996,-9.937,0.064,2.9130000000000003,0.8579,0.48450000000000004,-0.0261,-0.054,0.008,-0.025
1670266380.919996,-9.911,-0.076,2.842,0.8490000000000001,0.4817,-0.023100000000000002,-0.059000000000000004,0.018000000000000002,-0.008
1670266380.959996,-9.858,-0.019,2.835,0.8584,0.48450000000000004,-0.0264,-0.058,0.007,-0.02
1670266380.999996,-9.834,-0.019,2.828,0.8586,0.4864,-0.025900000000000003,-0.081,0.01,-0.02
1670266381.039996,-9.879,0.024,2.827,0.8589,0.48260000000000003,-0.0264,-0.08,-0.004,0.0
1670266381.079996,-9.959,0.016,2.888,0.8604,0.4852,-0.027100000000000003,-0.079,0.007,-0.008
1670266381.119996,-9.877,-0.052000000000000005,2.89,0.8564,0.4829,-0.025500000000000002,-0.076,0.002,-0.027
1670266381.159996,-9.852,0.046,2.833,0.8571000000000001,0.4818,-0.026000000000000002,-0.084,0.0,0.0
1670266381.199996,-9.876,-0.025,2.834,0.8608,0.48460000000000003,-0.025500000000000002,-0.098,-0.003,0.001
1670266381.239996,-9.842,0.012,2.849,0.8550000000000001,0.48460000000000003,-0.038900000000000004,-0.073,-0.001,-0.014
1670266381.279996,-9.891,-0.012,2.821,0.8550000000000001,0.4817,-0.013600000000000001,-0.079,0.002,-0.014
1670266381.319996,-9.881,0.0,2.895,0.8550000000000001,0.4854,-0.002,-0.085,-0.006,-0.003
1670266381.359996,-9.881,-0.007,2.873,0.8576,0.4854,-0.027100000000000003,-0.074,0.006,-0.016
1670266381.399996,-9.881,-0.007,2.895,0.8546,0.4833,-0.026500000000000003,-0.07200000000000001,0.014,-0.018000000000000002
1670266381.439996,-9.896,-0.02,2.895,0.8501000000000001,0.48040000000000005,-0.026500000000000003,-0.095,0.014,-0.007
1670266381.479996,-9.86,-0.012,2.857,0.8586,0.4849,-0.0151,-0.08,0.022,-0.001
1670266381.519996,-9.884,0.023,2.787,0.8557,0.48400000000000004,-0.011000000000000001,-0.082,0.01,-0.009000000000000001
1670266381.559996,-9.881,-0.029,2.821,0.8561000000000001,0.4813,-0.0317,-0.084,0.005,-0.018000000000000002
1670266381.5999959,-9.933,0.0,2.884,0.8445,0.48100000000000004,-0.024800000000000003,-0.092,0.007,-0.019
1670266381.639996,-9.838000000000001,-0.033,2.835,0.8519,0.4839,-0.0253,-0.069,0.01,-0.018000000000000002
1670266381.679996,-9.957,0.052000000000000005,2.822,0.8531000000000001,0.4839,-0.028,-0.064,0.012,-0.006
1670266381.719995,-9.897,-0.031,2.846,0.8552000000000001,0.4854,-0.027700000000000002,-0.084,0.015,-0.009000000000000001
1670266381.759995,-9.864,0.008,2.757,0.8579,0.4843,-0.0264,-0.084,0.001,-0.014
1670266381.799995,-9.858,0.005,2.858,0.8573000000000001,0.48460000000000003,-0.028900000000000002,-0.085,0.006,-0.013000000000000001
1670266381.839995,-9.862,0.035,2.8000000000000003,0.8582000000000001,0.4848,-0.027700000000000002,-0.075,0.005,-0.028
1670266381.879995,-9.950000000000001,-0.047,2.882,0.8595,0.4844,-0.027600000000000003,-0.093,0.012,-0.021
1670266381.919995,-9.864,0.065,2.821,0.8554,0.4827,-0.025,-0.077,0.002,-0.016
1670266381.959995,-9.897,-0.031,2.853,0.8597,0.4837,-0.023200000000000002,-0.095,0.0,-0.012
1670266381.999995,-9.908,-0.001,2.799,0.8586,0.4859,-0.0252,-0.078,0.013000000000000001,-0.015
1670266382.039995,-9.862,-0.007,2.873,0.8543000000000001,0.4832,-0.0291,-0.082,0.004,-0.014
1670266382.079995,-9.874,-0.02,2.799,0.8563000000000001,0.4839,-0.021500000000000002,-0.08700000000000001,0.002,-0.009000000000000001
1670266382.119995,-9.888,-0.001,2.865,0.8589,0.4833,-0.0285,-0.083,0.007,-0.017
1670266382.159995,-9.892,-0.006,2.845,0.8487,0.4834,-0.0245,-0.1,0.002,-0.009000000000000001
1670266382.199995,-9.869,-0.01,2.839,0.8578,0.48300000000000004,-0.0267,-0.097,-0.005,0.009000000000000001
1670266382.239995,-9.879,0.016,2.822,0.8446,0.4812,-0.015600000000000001,-0.098,0.022,-0.018000000000000002
1670266382.279995,-9.885,-0.044,2.849,0.8570000000000001,0.48300000000000004,-0.0257,-0.107,0.001,0.016
1670266382.319995,-9.801,0.105,2.7760000000000002,0.8556,0.48200000000000004,-0.0244,-0.077,0.03,-0.005
1670266382.359995,-9.853,-0.002,2.83,0.8598,0.48600000000000004,-0.025500000000000002,-0.083,0.02,-0.005
1670266382.3999949,-10.012,-0.022,2.867,0.8586,0.48140000000000005,-0.0252,-0.069,0.019,-0.01
1670266382.439995,-9.88,0.039,2.878,0.8579,0.4827,-0.0268,-0.059000000000000004,0.012,-0.031
1670266382.479995,-9.949,0.023,2.8890000000000002,0.8586,0.48310000000000003,-0.0263,-0.063,0.007,-0.01
1670266382.519995,-9.922,-0.029,2.862,0.8559,0.4824,-0.0279,-0.073,0.017,-0.002
1670266382.559995,-9.842,0.052000000000000005,2.754,0.8581000000000001,0.4812,-0.0287,-0.074,0.005,-0.031
1670266382.599995,-9.841000000000001,-0.006,2.79,0.8572000000000001,0.48360000000000003,-0.0273,-0.08600000000000001,0.017,-0.011
1670266382.6399949,-9.837,0.057,2.707,0.8576,0.4837,-0.0274,-0.069,0.006,-0.012
1670266382.679995,-9.872,-0.008,2.7560000000000002,0.8566,0.4788,-0.027600000000000003,-0.081,-0.005,-0.013000000000000001
1670266382.719995,-9.947000000000001,0.058,2.858,0.8585,0.4852,-0.0261,-0.057,0.008,-0.016
1670266382.759995,-9.922,-0.042,2.873,0.8559,0.4832,-0.0284,-0.08,0.001,-0.007
1670266382.799995,-9.906,-0.01,2.851,0.8539,0.4817,-0.028200000000000003,-0.077,0.003,-0.022
1670266382.839994,-9.877,0.033,2.785,0.8588,0.4848,-0.0274,-0.081,-0.005,-0.01
1670266382.879994,-9.958,0.041,2.825,0.8586,0.4818,-0.0269,-0.07200000000000001,-0.003,-0.018000000000000002
1670266382.919994,-9.856,0.008,2.867,0.8550000000000001,0.48190000000000005,-0.0234,-0.073,-0.01,-0.021
1670266382.959994,-9.849,0.023,2.766,0.8587,0.4833,-0.0264,-0.077,-0.004,-0.014
1670266382.999994,-9.912,-0.023,2.887,0.86,0.4857,-0.0279,-0.077,-0.003,-0.016
1670266383.039994,-9.883000000000001,0.029,2.8000000000000003,0.8539,0.48140000000000005,-0.0238,-0.081,0.002,-0.013000000000000001
1670266383.079994,-9.949,-0.005,2.8890000000000002,0.8581000000000001,0.4829,-0.026500000000000003,-0.077,0.0,-0.021
1670266383.119994,-9.888,-0.028,2.949,0.8568,0.4818,-0.0287,-0.08600000000000001,-0.009000000000000001,-0.009000000000000001
1670266383.159994,-9.859,0.028,2.7920000000000003,0.8598,0.48210000000000003,-0.028300000000000002,-0.08,0.0,-0.011
1670266383.1999938,-9.870000000000001,0.01,2.816,0.8611000000000001,0.48450000000000004,-0.024800000000000003,-0.082,0.007,-0.023
1670266383.239994,-9.915000000000001,0.007,2.793,0.8592000000000001,0.48460000000000003,-0.0251,-0.078,0.008,-0.019
1670266383.279994,-9.78,-0.005,2.83,0.8557,0.4807,-0.0256,-0.084,0.0,-0.018000000000000002
1670266383.319994,-9.915000000000001,0.041,2.876,0.8583000000000001,0.4843,-0.024300000000000002,-0.084,0.011,-0.002
1670266383.359994,-9.901,-0.04,2.922,0.8576,0.4828,-0.029,-0.08700000000000001,0.01,-0.006
1670266383.399994,-9.871,0.025,2.815,0.8581000000000001,0.4802,-0.025400000000000002,-0.088,0.016,-0.008
1670266383.4399939,-9.842,0.013000000000000001,2.833,0.8567,0.4837,-0.027,-0.07,0.006,-0.019
1670266383.479994,-9.91,0.025,2.874,0.8578,0.48350000000000004,-0.0256,-0.073,0.009000000000000001,-0.027
1670266383.519994,-9.912,-0.05,2.822,0.8581000000000001,0.4829,-0.027700000000000002,-0.098,0.008,-0.001
1670266383.559994,-9.925,0.034,2.806,0.8604,0.48500000000000004,-0.0263,-0.081,0.014,-0.008
1670266383.599994,-9.84,0.031,2.726,0.8582000000000001,0.48400000000000004,-0.0262,-0.064,0.018000000000000002,-0.027
1670266383.639994,-9.897,0.014,2.837,0.8557,0.47890000000000005,-0.0284,-0.096,0.001,-0.013000000000000001
1670266383.6799939,-9.846,-0.008,2.865,0.8574,0.48710000000000003,-0.0274,-0.078,-0.006,-0.016
1670266383.719994,-9.895,0.0,2.835,0.859,0.48350000000000004,-0.0258,-0.076,-0.01,-0.022
1670266383.759994,-9.842,0.005,2.873,0.8562000000000001,0.4818,-0.027200000000000002,-0.078,-0.009000000000000001,-0.015
1670266383.799994,-9.904,0.022,2.839,0.8574,0.48260000000000003,-0.024900000000000002,-0.064,0.005,-0.031
1670266383.839994,-9.9,-0.064,2.8850000000000002,0.8556,0.4864,-0.024900000000000002,-0.08700000000000001,0.008,-0.015
1670266383.879993,-9.854000000000001,-0.02,2.875,0.8565,0.4843,-0.0233,-0.099,-0.003,-0.01
1670266383.919993,-9.877,-0.011,2.849,0.8572000000000001,0.4847,-0.0258,-0.084,0.0,-0.022
1670266383.959993,-9.868,-0.028,2.869,0.8589,0.4858,-0.0253,-0.091,-0.001,-0.012
1670266383.9999928,-9.886000000000001,-0.005,2.844,0.8573000000000001,0.48350000000000004,-0.026600000000000002,-0.088,0.003,-0.003
1670266384.039993,-9.862,-0.002,2.861,0.8562000000000001,0.4844,-0.0244,-0.069,0.011,-0.027
1670266384.079993,-9.888,-0.064,2.866,0.8597,0.4854,-0.0239,-0.082,0.016,-0.017
1670266384.119993,-9.907,0.055,2.968,0.8549,0.4824,-0.0263,-0.084,0.002,-0.006
1670266384.159993,-9.948,-0.034,2.934,0.8591000000000001,0.4833,-0.0244,-0.067,0.022,0.0
1670266384.199993,-9.818,-0.017,2.835,0.8587,0.4842,-0.0241,-0.089,0.021,-0.019
1670266384.2399929,-9.867,-0.035,2.852,0.8584,0.4818,-0.0253,-0.08700000000000001,0.024,-0.016
1670266384.279993,-9.891,0.01,2.831,0.8589,0.48310000000000003,-0.026600000000000002,-0.094,-0.001,-0.013000000000000001
1670266384.319993,-9.959,-0.004,2.871,0.8554,0.4829,-0.022600000000000002,-0.068,0.014,-0.018000000000000002
1670266384.359993,-9.812,-0.061,2.828,0.8577,0.48300000000000004,-0.0247,-0.081,0.013000000000000001,-0.019
1670266384.399993,-9.878,0.028,2.805,0.8568,0.4829,-0.0274,-0.075,0.017,-0.003
1670266384.439993,-9.842,-0.027,2.843,0.8588,0.48350000000000004,-0.026600000000000002,-0.088,0.004,-0.003
1670266384.4799929,-9.925,-0.008,2.862,0.8587,0.4828,-0.0222,-0.079,-0.002,-0.018000000000000002
1670266384.519993,-9.864,-0.023,2.861,0.8587,0.48300000000000004,-0.0274,-0.083,0.002,-0.017
1670266384.559993,-9.874,-0.008,2.87,0.8581000000000001,0.48650000000000004,-0.028,-0.08600000000000001,-0.006,-0.013000000000000001
1670266384.599993,-9.86,-0.052000000000000005,2.8970000000000002,0.8538,0.4838,-0.025,-0.085,0.0,-0.014
1670266384.639993,-9.928,-0.033,2.949,0.8581000000000001,0.4839,-0.0286,-0.08,0.004,-0.017
1670266384.679993,-9.886000000000001,-0.028,2.856,0.8545,0.4842,-0.0257,-0.07100000000000001,0.019,-0.016
1670266384.7199929,-9.882,-0.023,2.836,0.8573000000000001,0.4859,-0.027700000000000002,-0.075,0.019,-0.014
1670266384.759993,-9.92,-0.058,2.891,0.8553000000000001,0.4848,-0.0256,-0.075,0.018000000000000002,-0.009000000000000001
1670266384.799993,-9.909,0.0,2.896,0.8594,0.48400000000000004,-0.027800000000000002,-0.095,0.014,-0.001
1670266384.839993,-9.905,-0.008,2.845,0.8580000000000001,0.4818,-0.0207,-0.074,0.007,-0.014
1670266384.879993,-9.915000000000001,0.0,2.876,0.8571000000000001,0.48460000000000003,-0.043000000000000003,-0.069,0.015,-0.015
1670266384.919992,-9.81,-0.013000000000000001,2.828,0.8431000000000001,0.4807,-0.0004,-0.081,0.009000000000000001,-0.008
1670266384.959992,-9.855,-0.04,2.834,0.8431000000000001,0.48140000000000005,-0.0263,-0.08600000000000001,0.014,-0.009000000000000001
1670266384.999992,-9.855,0.085,2.862,0.8544,0.48140000000000005,-0.018500000000000003,-0.081,0.017,-0.01
1670266385.0399919,-9.956,0.085,2.84,0.8539,0.4824,-0.018500000000000003,-0.094,0.003,0.023
1670266385.079992,-9.949,-0.049,2.84,0.8580000000000001,0.48260000000000003,-0.025,-0.078,0.013000000000000001,-0.034
1670266385.119992,-9.839,-0.02,2.775,0.8577,0.4857,-0.036500000000000005,-0.091,0.003,-0.009000000000000001
1670266385.159992,-9.877,-0.043000000000000003,2.833,0.8562000000000001,0.4838,-0.0303,-0.10200000000000001,-0.006,-0.008
1670266385.199992,-9.948,0.013000000000000001,2.87,0.8565,0.48460000000000003,-0.0117,-0.07,0.004,-0.023
1670266385.239992,-9.918000000000001,0.005,2.809,0.8584,0.48210000000000003,-0.0341,-0.044,0.059000000000000004,-0.019
1670266385.2799919,-9.895,-0.023,2.88,0.8576,0.4834,-0.033600000000000005,-0.062,0.025,-0.011
1670266385.319992,-9.877,0.022,2.842,0.8581000000000001,0.4853,-0.0291,-0.085,0.011,-0.001
1670266385.359992,-9.932,-0.045,2.846,0.8570000000000001,0.4857,-0.0287,-0.083,0.013000000000000001,-0.018000000000000002
1670266385.399992,-9.907,0.032,2.785,0.8577,0.48310000000000003,-0.029300000000000003,-0.052000000000000005,0.011,-0.04
1670266385.439992,-9.853,0.016,2.771,0.8571000000000001,0.4823,-0.0302,-0.074,-0.005,-0.022
1670266385.479992,-9.88,-0.027,2.794,0.8604,0.4857,-0.0241,-0.09,0.0,-0.003
1670266385.5199919,-9.88,-0.009000000000000001,2.858,0.8523000000000001,0.48140000000000005,-0.0258,-0.08700000000000001,0.007,-0.015
1670266385.559992,-9.878,-0.033,2.801,0.8597,0.4838,-0.0256,-0.105,0.011,-0.009000000000000001
1670266385.599992,-9.879,0.001,2.797,0.8446,0.47840000000000005,-0.0155,-0.092,0.005,-0.004
1670266385.639992,-9.968,0.002,2.806,0.8593000000000001,0.4834,-0.0296,-0.073,0.015,-0.018000000000000002
1670266385.679992,-9.871,-0.01,2.791,0.8549,0.4828,-0.024300000000000002,-0.08600000000000001,-0.001,-0.009000000000000001
1670266385.719992,-9.895,-0.009000000000000001,2.825,0.8597,0.4829,-0.024900000000000002,-0.089,-0.002,-0.004
1670266385.759992,-9.870000000000001,0.028,2.7920000000000003,0.8580000000000001,0.4823,-0.028800000000000003,-0.064,0.008,-0.032
1670266385.799992,-9.91,-0.001,2.793,0.859,0.4834,-0.0281,-0.081,0.002,-0.017
1670266385.839992,-9.842,-0.037,2.819,0.8601000000000001,0.48310000000000003,-0.0274,-0.08,-0.005,-0.01
1670266385.879992,-9.889,-0.098,2.806,0.8585,0.48450000000000004,-0.027700000000000002,-0.099,-0.005,-0.013000000000000001
1670266385.919992,-9.94,0.075,2.912,0.8572000000000001,0.48550000000000004,-0.0292,-0.082,0.009000000000000001,-0.012
1670266385.959991,-9.927,-0.058,2.81,0.8572000000000001,0.48360000000000003,-0.026000000000000002,-0.083,0.008,-0.008
1670266385.999991,-9.813,-0.034,2.767,0.8551000000000001,0.4843,-0.0252,-0.084,-0.005,-0.009000000000000001
1670266386.039991,-9.937,-0.029,2.861,0.8594,0.4839,-0.028800000000000003,-0.083,0.006,-0.018000000000000002
1670266386.0799909,-9.847,-0.029,2.8120000000000003,0.8594,0.4834,-0.027200000000000002,-0.077,-0.007,-0.019
1670266386.119991,-9.933,-0.012,2.854,0.8580000000000001,0.4857,-0.027700000000000002,-0.069,0.001,-0.014
1670266386.159991,-9.85,-0.082,2.843,0.8573000000000001,0.48260000000000003,-0.0252,-0.091,-0.007,-0.015
1670266386.199991,-9.870000000000001,0.034,2.8000000000000003,0.8586,0.48710000000000003,-0.026600000000000002,-0.076,0.011,-0.011
1670266386.239991,-9.885,-0.044,2.829,0.86,0.4838,-0.0264,-0.08700000000000001,-0.001,-0.006
1670266386.279991,-9.888,0.013000000000000001,2.854,0.8559,0.48260000000000003,-0.0258,-0.074,0.014,-0.022
1670266386.3199909,-9.9,-0.044,2.865,0.8568,0.4832,-0.027,-0.078,0.005,-0.015
1670266386.359991,-9.895,0.0,2.86,0.8563000000000001,0.4848,-0.0262,-0.074,0.001,-0.018000000000000002
1670266386.399991,-9.843,-0.025,2.853,0.8570000000000001,0.48400000000000004,-0.0241,-0.08,0.001,-0.014
1670266386.439991,-9.883000000000001,0.01,2.8000000000000003,0.8562000000000001,0.48310000000000003,-0.027,-0.075,0.0,-0.015
1670266386.479991,-9.912,-0.035,2.857,0.8584,0.4867,-0.0256,-0.09,0.007,-0.009000000000000001
1670266386.519991,-9.870000000000001,-0.016,2.827,0.8578,0.48560000000000003,-0.027200000000000002,-0.094,0.0,-0.005
1670266386.559991,-9.879,-0.032,2.847,0.8581000000000001,0.4824,-0.0252,-0.079,0.009000000000000001,-0.014
1670266386.599991,-9.889,-0.035,2.802,0.8583000000000001,0.4867,-0.026500000000000003,-0.084,0.004,-0.017
1670266386.639991,-9.879,0.0,2.839,0.8570000000000001,0.48400000000000004,-0.028,-0.07,0.009000000000000001,-0.02
1670266386.679991,-9.829,-0.023,2.814,0.8585,0.4824,-0.0275,-0.07100000000000001,0.009000000000000001,-0.028
1670266386.719991,-9.89,-0.068,2.785,0.8601000000000001,0.48610000000000003,-0.024300000000000002,-0.083,0.004,-0.016
1670266386.759991,-9.898,0.043000000000000003,2.916,0.8554,0.4839,-0.029900000000000003,-0.081,0.006,-0.007
1670266386.799991,-9.927,-0.043000000000000003,2.828,0.8581000000000001,0.4847,-0.0263,-0.07,0.001,-0.004
1670266386.839991,-9.903,-0.034,2.831,0.8594,0.48460000000000003,-0.0262,-0.081,0.008,-0.015
1670266386.879991,-9.844,0.0,2.843,0.8586,0.4801,-0.031100000000000003,-0.082,0.009000000000000001,-0.021
1670266386.919991,-9.862,-0.001,2.816,0.8554,0.4854,-0.0281,-0.08,0.006,-0.013000000000000001
1670266386.959991,-9.919,-0.013000000000000001,2.86,0.8584,0.48400000000000004,-0.0285,-0.076,0.01,-0.017
1670266386.99999,-9.843,-0.055,2.816,0.8572000000000001,0.4824,-0.0297,-0.08600000000000001,0.015,-0.016
1670266387.03999,-9.864,0.006,2.814,0.8493,0.4832,-0.027200000000000002,-0.08,0.015,-0.008
1670266387.07999,-9.902000000000001,-0.041,2.841,0.8572000000000001,0.48500000000000004,-0.0263,-0.08700000000000001,0.001,-0.011
1670266387.1199899,-9.902000000000001,-0.002,2.832,0.8571000000000001,0.4862,-0.028,-0.07200000000000001,0.01,-0.015
1670266387.15999,-9.886000000000001,-0.035,2.835,0.859,0.48260000000000003,-0.0281,-0.08,0.0,-0.016
1670266387.19999,-9.873,-0.029,2.855,0.8573000000000001,0.48650000000000004,-0.0264,-0.089,0.0,-0.01
1670266387.23999,-9.867,-0.035,2.882,0.8565,0.48360000000000003,-0.0286,-0.1,0.004,-0.005
1670266387.27999,-9.903,-0.02,2.799,0.8593000000000001,0.48300000000000004,-0.027800000000000002,-0.07100000000000001,0.006,-0.017
1670266387.31999,-9.913,-0.014,2.863,0.8581000000000001,0.48210000000000003,-0.0269,-0.07200000000000001,0.015,-0.007
1670266387.35999,-9.885,-0.014,2.824,0.8574,0.48460000000000003,-0.026500000000000003,-0.076,0.01,-0.018000000000000002
1670266387.39999,-9.912,-0.004,2.828,0.8573000000000001,0.4832,-0.028300000000000002,-0.081,0.008,-0.021
1670266387.43999,-9.873,0.0,2.825,0.8608,0.48610000000000003,-0.0258,-0.074,-0.004,-0.02
1670266387.47999,-9.862,0.011,2.8040000000000003,0.8580000000000001,0.4833,-0.027700000000000002,-0.077,0.002,-0.009000000000000001
1670266387.51999,-9.901,-0.026000000000000002,2.827,0.8573000000000001,0.4823,-0.0285,-0.083,0.006,-0.014
1670266387.55999,-9.889,-0.02,2.866,0.8598,0.48460000000000003,-0.0274,-0.076,0.01,-0.012
1670266387.59999,-9.807,-0.058,2.793,0.8595,0.4848,-0.027800000000000002,-0.085,0.015,-0.015
1670266387.63999,-9.988,0.069,2.847,0.8571000000000001,0.48200000000000004,-0.0291,-0.061,0.013000000000000001,-0.006
1670266387.67999,-9.907,-0.033,2.815,0.8570000000000001,0.4862,-0.0291,-0.074,0.014,-0.014
1670266387.71999,-9.874,-0.032,2.7880000000000003,0.8581000000000001,0.4829,-0.0267,-0.089,0.007,-0.011
1670266387.75999,-9.837,0.012,2.731,0.8576,0.48500000000000004,-0.028800000000000003,-0.107,-0.006,0.001
1670266387.79999,-9.883000000000001,0.0,2.837,0.8568,0.48410000000000003,-0.0261,-0.078,0.0,-0.014
1670266387.83999,-9.973,-0.049,2.895,0.8568,0.48550000000000004,-0.0258,-0.07,0.006,0.002
1670266387.87999,-9.903,-0.061,2.888,0.8587,0.4828,-0.0281,-0.121,-0.022,0.019
1670266387.91999,-9.919,0.08,2.882,0.8581000000000001,0.4827,-0.0262,-0.033,0.013000000000000001,0.005
1670266387.95999,-9.888,0.019,2.8000000000000003,0.8581000000000001,0.4818,-0.0258,-0.049,0.019,-0.008
1670266387.99999,-9.901,0.048,2.836,0.8570000000000001,0.4823,-0.0284,-0.042,0.017,-0.015
1670266388.039989,-9.908,0.025,2.797,0.8587,0.4837,-0.0292,-0.067,0.002,-0.012
1670266388.079989,-9.848,0.007,2.832,0.8608,0.4829,-0.0281,-0.066,0.013000000000000001,-0.016
1670266388.119989,-9.895,0.032,2.825,0.8576,0.4834,-0.0268,-0.084,-0.007,-0.011
1670266388.1599889,-9.925,0.0,2.866,0.8575,0.4797,-0.027,-0.088,-0.006,-0.016
1670266388.199989,-9.905,0.023,2.816,0.8592000000000001,0.4823,-0.0274,-0.083,-0.001,-0.009000000000000001
1670266388.239989,-9.906,-0.006,2.842,0.8549,0.4832,-0.0258,-0.081,-0.012,-0.022
1670266388.279989,-9.842,-0.016,2.818,0.8597,0.4839,-0.0285,-0.08600000000000001,0.009000000000000001,-0.012
1670266388.319989,-9.943,0.002,2.798,0.8580000000000001,0.4832,-0.0256,-0.081,-0.016,-0.018000000000000002
1670266388.359989,-9.83,0.041,2.814,0.8534,0.4766,-0.0176,-0.083,-0.001,-0.012
1670266388.399989,-9.843,0.005,2.825,0.8589,0.48400000000000004,-0.0262,-0.077,0.005,-0.009000000000000001
1670266388.439989,-9.978,0.014,2.868,0.8598,0.4853,-0.025500000000000002,-0.07100000000000001,-0.017,-0.023
1670266388.479989,-9.834,-0.001,2.876,0.8566,0.4796,-0.027800000000000002,-0.09,-0.007,-0.013000000000000001
1670266388.519989,-9.915000000000001,0.079,2.806,0.8553000000000001,0.4839,0.0011,-0.066,0.0,-0.005
1670266388.559989,-9.863,-0.013000000000000001,2.829,0.8579,0.4824,-0.0155,-0.07200000000000001,0.0,-0.011
1670266388.599989,-9.863,0.031,2.799,0.8579,0.48360000000000003,-0.032100000000000004,-0.082,-0.002,-0.016
1670266388.639989,-9.862,0.031,2.924,0.8572000000000001,0.48360000000000003,-0.032100000000000004,-0.097,0.002,-0.009000000000000001
1670266388.679989,-9.856,-0.01,2.924,0.8521000000000001,0.48150000000000004,-0.041800000000000004,-0.095,0.0,-0.022
1670266388.719989,-9.885,0.037,2.869,0.8576,0.48200000000000004,-0.0268,-0.059000000000000004,0.011,-0.027
1670266388.759989,-9.903,-0.03,2.9130000000000003,0.8570000000000001,0.4817,-0.005,-0.09,0.0,-0.022
1670266388.799989,-9.872,0.01,2.846,0.8583000000000001,0.4832,-0.021400000000000002,-0.082,0.011,-0.015
1670266388.839989,-9.870000000000001,-0.011,2.8810000000000002,0.8561000000000001,0.4853,-0.016900000000000002,-0.08600000000000001,-0.007,-0.01
1670266388.879989,-9.873,-0.01,2.884,0.8527,0.48090000000000005,-0.0342,-0.085,0.003,-0.017
1670266388.919989,-9.888,0.024,2.875,0.8544,0.4824,-0.0247,-0.07200000000000001,0.003,-0.018000000000000002
1670266388.959989,-9.859,-0.011,2.888,0.8442000000000001,0.48100000000000004,-0.028800000000000003,-0.08600000000000001,-0.005,-0.015
1670266388.999989,-9.891,0.015,2.8850000000000002,0.8585,0.4827,-0.0257,-0.084,0.003,-0.016
1670266389.039989,-9.862,-0.013000000000000001,2.829,0.8535,0.4782,-0.0167,-0.076,0.009000000000000001,-0.021
1670266389.079988,-9.872,0.009000000000000001,2.904,0.8567,0.4862,-0.0252,-0.10300000000000001,0.015,-0.01
1670266389.119988,-9.855,-0.014,2.876,0.8578,0.48360000000000003,-0.027200000000000002,-0.096,0.002,-0.008
1670266389.159988,-9.883000000000001,-0.002,2.869,0.8580000000000001,0.4818,-0.0267,-0.073,0.004,-0.021
1670266389.199988,-9.902000000000001,-0.052000000000000005,2.958,0.8581000000000001,0.4849,-0.0228,-0.081,0.01,-0.01
1670266389.239988,-9.903,-0.003,2.832,0.8580000000000001,0.4839,-0.023,-0.081,0.002,-0.011
1670266389.279988,-9.878,-0.017,2.9090000000000003,0.8604,0.4862,-0.0239,-0.077,-0.003,-0.017
1670266389.319988,-9.903,-0.029,2.91,0.8597,0.4844,-0.0246,-0.098,0.012,-0.016
1670266389.359988,-9.841000000000001,0.0,2.9330000000000003,0.8595,0.4842,-0.024,-0.075,-0.003,-0.01
1670266389.399988,-9.961,0.019,2.851,0.8611000000000001,0.4812,-0.024900000000000002,-0.065,0.019,-0.01
1670266389.439988,-9.836,-0.038,2.918,0.8598,0.48250000000000004,-0.0234,-0.082,0.0,-0.027
1670266389.479988,-9.790000000000001,-0.009000000000000001,2.868,0.8604,0.4822,-0.0244,-0.08600000000000001,0.01,-0.01
1670266389.519988,-9.905,-0.016,2.847,0.8564,0.4808,-0.0246,-0.076,0.019,-0.022
1670266389.559988,-9.864,0.002,2.892,0.8572000000000001,0.4864,-0.0241,-0.078,0.02,-0.015
1670266389.599988,-9.871,-0.062,2.831,0.8460000000000001,0.4807,-0.02,-0.095,0.009000000000000001,-0.008
1670266389.639988,-9.868,0.047,2.892,0.8525,0.4838,-0.026000000000000002,-0.082,0.007,-0.011
1670266389.679988,-9.883000000000001,-0.032,2.872,0.8597,0.4847,-0.0244,-0.094,0.006,-0.01
1670266389.719988,-9.888,-0.003,2.839,0.8578,0.48150000000000004,-0.0236,-0.077,0.009000000000000001,-0.016
1670266389.759988,-9.885,-0.028,2.931,0.8605,0.4849,-0.023,-0.077,0.0,-0.014
1670266389.799988,-9.867,-0.008,2.888,0.8588,0.4842,-0.0264,-0.073,0.004,-0.015
1670266389.839988,-9.879,-0.007,2.86,0.8548,0.4847,-0.0241,-0.075,0.007,-0.021
1670266389.879988,-9.874,-0.024,2.837,0.8576,0.48300000000000004,-0.0256,-0.082,0.005,-0.012
1670266389.919988,-9.927,-0.019,2.903,0.8599,0.4832,-0.0257,-0.089,0.012,-0.017
1670266389.959988,-9.86,-0.046,2.855,0.8589,0.4849,-0.0247,-0.088,0.007,-0.017
1670266389.999988,-9.852,-0.022,2.846,0.8601000000000001,0.4837,-0.028,-0.097,0.003,-0.001
1670266390.039988,-9.874,-0.018000000000000002,2.884,0.8594,0.48450000000000004,-0.024800000000000003,-0.085,0.008,-0.012
1670266390.079988,-9.866,-0.019,2.839,0.86,0.48510000000000003,-0.0241,-0.07,0.015,-0.023
1670266390.119987,-9.882,-0.044,2.903,0.8589,0.48610000000000003,-0.026500000000000003,-0.068,0.014,-0.015
1670266390.159987,-9.822000000000001,-0.052000000000000005,2.87,0.8611000000000001,0.48700000000000004,-0.024300000000000002,-0.079,0.005,-0.022
1670266390.199987,-9.927,0.038,2.833,0.8627,0.4839,-0.026600000000000002,-0.075,0.013000000000000001,0.0
1670266390.239987,-9.871,-0.023,2.785,0.8559,0.48210000000000003,-0.0257,-0.078,0.02,0.0
1670266390.279987,-9.903,-0.012,2.856,0.8569,0.4832,-0.0247,-0.088,0.016,-0.008
1670266390.319987,-9.853,-0.033,2.886,0.8567,0.48650000000000004,-0.026000000000000002,-0.09,0.009000000000000001,-0.012
1670266390.359987,-9.879,0.019,2.7960000000000003,0.8556,0.48360000000000003,-0.0275,-0.08,0.007,-0.02
1670266390.399987,-9.937,-0.026000000000000002,2.888,0.8462000000000001,0.47900000000000004,-0.0212,-0.07100000000000001,0.015,-0.024
1670266390.439987,-9.921,-0.08,2.943,0.8574,0.48310000000000003,-0.024200000000000003,-0.08600000000000001,0.01,-0.01
1670266390.479987,-9.836,-0.004,2.835,0.8589,0.4839,-0.025,-0.083,0.003,-0.007
1670266390.519987,-9.896,-0.032,2.871,0.8595,0.48460000000000003,-0.025400000000000002,-0.079,0.003,-0.013000000000000001
1670266390.559987,-9.901,-0.021,2.878,0.8589,0.48510000000000003,-0.0245,-0.07100000000000001,0.007,-0.021
1670266390.599987,-9.886000000000001,-0.014,2.84,0.8588,0.48350000000000004,-0.0281,-0.077,0.003,-0.022
1670266390.639987,-9.879,-0.028,2.884,0.8579,0.4844,-0.0269,-0.081,0.004,-0.014
1670266390.679987,-9.909,-0.045,2.9,0.8596,0.48310000000000003,-0.0247,-0.079,-0.008,-0.011
1670266390.719987,-9.864,0.0,2.833,0.8538,0.4844,-0.025400000000000002,-0.09,0.009000000000000001,-0.014
1670266390.759987,-9.871,-0.016,2.846,0.8583000000000001,0.4839,-0.027800000000000002,-0.077,0.008,-0.015
1670266390.799987,-9.906,-0.022,2.915,0.8598,0.4862,-0.028200000000000003,-0.07200000000000001,0.009000000000000001,-0.014
1670266390.839987,-9.871,-0.046,2.875,0.8563000000000001,0.48500000000000004,-0.028300000000000002,-0.082,0.005,-0.007
1670266390.879987,-9.903,0.032,2.837,0.8564,0.48210000000000003,-0.026600000000000002,-0.083,0.0,-0.001
1670266390.919987,-9.886000000000001,-0.023,2.916,0.8563000000000001,0.4843,-0.0258,-0.056,0.03,-0.018000000000000002
1670266390.959987,-9.901,-0.062,2.88,0.8596,0.48300000000000004,-0.0263,-0.04,0.057,-0.019
1670266390.999987,-9.924,0.081,2.895,0.8559,0.48310000000000003,-0.027700000000000002,-0.07,0.009000000000000001,-0.019
1670266391.0399868,-9.878,-0.105,2.8000000000000003,0.8544,0.48410000000000003,-0.027100000000000003,-0.066,0.011,-0.002
1670266391.079987,-9.856,-0.011,2.751,0.8552000000000001,0.48210000000000003,-0.028,-0.085,-0.005,-0.015
1670266391.119987,-9.833,0.005,2.821,0.8537,0.4842,-0.024900000000000002,-0.089,0.002,-0.023
1670266391.159986,-9.901,-0.011,2.891,0.8589,0.4839,-0.0258,-0.092,-0.004,-0.012
1670266391.199986,-9.924,-0.021,2.842,0.8597,0.4864,-0.0253,-0.08600000000000001,-0.007,-0.011
1670266391.239986,-9.854000000000001,-0.074,2.868,0.8564,0.48560000000000003,-0.0269,-0.092,0.009000000000000001,-0.009000000000000001
1670266391.279986,-9.879,0.014,2.867,0.8571000000000001,0.4832,-0.025,-0.065,0.004,-0.006
1670266391.319986,-9.946,-0.068,2.872,0.8579,0.4837,-0.0258,-0.08700000000000001,-0.004,-0.012
1670266391.359986,-9.853,0.026000000000000002,2.87,0.8587,0.4837,-0.027200000000000002,-0.07200000000000001,0.003,-0.011
1670266391.399986,-9.868,0.001,2.802,0.8563000000000001,0.4859,-0.0264,-0.062,-0.009000000000000001,-0.021
1670266391.439986,-9.837,-0.013000000000000001,2.831,0.8578,0.48500000000000004,-0.025,-0.065,0.001,-0.019
1670266391.479986,-9.876,-0.024,2.867,0.8577,0.48510000000000003,-0.0286,-0.085,-0.006,-0.013000000000000001
1670266391.519986,-9.908,-0.03,2.848,0.8567,0.4817,-0.0269,-0.088,0.0,-0.021
1670266391.559986,-9.909,0.0,2.838,0.8596,0.4862,-0.0267,-0.088,0.012,-0.005
1670266391.599986,-9.9,-0.049,2.848,0.8572000000000001,0.48310000000000003,-0.025500000000000002,-0.08600000000000001,0.01,-0.024
1670266391.639986,-9.884,-0.004,2.837,0.8539,0.4832,-0.0264,-0.083,0.008,-0.014
1670266391.679986,-9.865,-0.028,2.849,0.8598,0.4847,-0.023700000000000002,-0.077,0.0,-0.014
1670266391.719986,-9.918000000000001,-0.037,2.863,0.8589,0.4829,-0.0267,-0.08,0.005,-0.012
1670266391.759986,-9.889,-0.037,2.87,0.8536,0.4859,-0.025900000000000003,-0.07100000000000001,0.001,-0.018000000000000002
1670266391.799986,-9.828,-0.044,2.844,0.8514,0.4867,-0.020800000000000003,-0.083,0.012,-0.022
1670266391.8399858,-9.965,0.026000000000000002,2.882,0.8559,0.48400000000000004,-0.0286,-0.067,0.007,-0.011
1670266391.879986,-9.888,-0.046,2.825,0.8597,0.4843,-0.0263,-0.075,0.015,-0.003
1670266391.919986,-9.853,-0.025,2.852,0.8588,0.4849,-0.024200000000000003,-0.084,0.012,-0.011
1670266391.959986,-9.81,-0.016,2.803,0.8570000000000001,0.48460000000000003,-0.028900000000000002,-0.08600000000000001,0.011,-0.014
1670266391.999986,-9.874,0.01,2.875,0.8581000000000001,0.4838,-0.0285,-0.08700000000000001,0.004,-0.009000000000000001
1670266392.039986,-9.946,-0.046,2.84,0.8593000000000001,0.4862,-0.0247,-0.08,0.004,-0.017
1670266392.0799859,-9.919,-0.056,2.886,0.8572000000000001,0.4837,-0.0264,-0.089,0.007,-0.024
1670266392.119986,-9.867,-0.043000000000000003,2.835,0.8569,0.48650000000000004,-0.0318,-0.069,0.016,-0.006
1670266392.159986,-9.892,-0.027,2.84,0.8536,0.48350000000000004,-0.032,-0.093,0.002,-0.006
1670266392.199986,-9.887,-0.016,2.851,0.8565,0.4853,-0.0325,-0.078,0.008,-0.006
1670266392.239986,-9.887,-0.028,2.845,0.8565,0.4853,-0.0304,-0.073,0.007,-0.018000000000000002
1670266392.279985,-9.904,-0.028,2.866,0.8561000000000001,0.4829,-0.026500000000000003,-0.09,0.003,-0.014
1670266392.319985,-9.887,-0.008,2.866,0.8451000000000001,0.48150000000000004,-0.026500000000000003,-0.078,0.009000000000000001,-0.014
1670266392.359985,-9.857,-0.034,2.827,0.8568,0.4827,-0.045000000000000005,-0.076,0.006,-0.022
1670266392.399985,-9.868,-0.023,2.842,0.8466,0.4782,-0.014100000000000001,-0.085,0.003,-0.012
1670266392.439985,-9.91,-0.033,2.866,0.8582000000000001,0.48400000000000004,-0.0296,-0.085,0.012,-0.003
1670266392.479985,-9.874,-0.034,2.86,0.8549,0.4813,-0.012100000000000001,-0.08600000000000001,0.008,-0.007
1670266392.519985,-9.871,-0.045,2.903,0.8566,0.48260000000000003,-0.0357,-0.085,0.009000000000000001,-0.001
1670266392.559985,-9.872,-0.013000000000000001,2.797,0.8583000000000001,0.4843,-0.0262,-0.079,0.006,-0.01
1670266392.599985,-9.882,0.016,2.7760000000000002,0.8587,0.48260000000000003,-0.026000000000000002,-0.075,0.004,-0.02
1670266392.6399848,-9.921,-0.059000000000000004,2.87,0.8570000000000001,0.4828,-0.027600000000000003,-0.076,0.004,-0.02
1670266392.679985,-9.877,-0.01,2.904,0.8561000000000001,0.48410000000000003,-0.0273,-0.078,0.01,-0.013000000000000001
1670266392.719985,-9.861,-0.059000000000000004,2.864,0.8563000000000001,0.48500000000000004,-0.027,-0.079,-0.002,-0.017
1670266392.759985,-9.933,0.04,2.848,0.8586,0.48450000000000004,-0.0292,-0.076,0.018000000000000002,-0.005
1670266392.799985,-9.907,-0.068,2.898,0.8598,0.4843,-0.0252,-0.09,0.006,-0.013000000000000001
1670266392.839985,-9.885,-0.023,2.822,0.8572000000000001,0.4854,-0.0236,-0.088,0.004,-0.014
1670266392.8799849,-9.855,-0.037,2.833,0.8564,0.4817,-0.026000000000000002,-0.10400000000000001,-0.007,-0.009000000000000001
1670266392.919985,-9.904,-0.002,2.902,0.8589,0.48190000000000005,-0.0261,-0.08,0.008,-0.005
1670266392.959985,-9.924,-0.031,2.821,0.8637,0.4849,-0.025,-0.078,0.016,-0.025
1670266392.999985,-9.928,-0.054,2.856,0.8565,0.48400000000000004,-0.0292,-0.061,0.015,-0.014
1670266393.039985,-9.853,-0.022,2.863,0.8476,0.4834,-0.016300000000000002,-0.078,0.002,-0.001
1670266393.079985,-9.94,-0.027,2.819,0.8594,0.48600000000000004,-0.0287,-0.073,0.012,-0.024
1670266393.1199849,-9.846,-0.031,2.8000000000000003,0.8536,0.4832,-0.0238,-0.075,-0.002,-0.009000000000000001
1670266393.159985,-9.921,-0.025,2.888,0.8575,0.48500000000000004,-0.024800000000000003,-0.074,-0.003,-0.003
1670266393.199985,-9.869,-0.024,2.849,0.8575,0.4864,-0.0223,-0.07200000000000001,0.005,-0.023
1670266393.239985,-9.876,-0.028,2.861,0.8561000000000001,0.4853,-0.026600000000000002,-0.064,0.0,-0.017
1670266393.279985,-9.913,-0.034,2.783,0.8565,0.48460000000000003,-0.027800000000000002,-0.08700000000000001,0.002,-0.01
1670266393.319984,-9.847,-0.016,2.806,0.8606,0.48710000000000003,-0.027,-0.078,-0.003,-0.01
1670266393.359984,-9.867,-0.019,2.842,0.8568,0.48360000000000003,-0.028900000000000002,-0.074,0.002,-0.019
1670266393.399984,-9.873,-0.049,2.882,0.8594,0.48600000000000004,-0.027100000000000003,-0.075,-0.002,-0.026000000000000002
1670266393.4399838,-9.876,-0.032,2.832,0.8598,0.48650000000000004,-0.026600000000000002,-0.076,-0.007,-0.008
1670266393.479984,-9.897,-0.079,2.892,0.8570000000000001,0.48510000000000003,-0.0247,-0.082,-0.007,-0.011
1670266393.519984,-9.874,0.018000000000000002,2.85,0.8579,0.4844,-0.025900000000000003,-0.08,0.0,-0.013000000000000001
1670266393.559984,-9.887,-0.052000000000000005,2.888,0.8609,0.4842,-0.0267,-0.078,-0.004,-0.007
1670266393.599984,-9.913,-0.019,2.888,0.8597,0.4859,-0.0256,-0.059000000000000004,0.007,-0.003
1670266393.639984,-9.865,-0.08600000000000001,2.868,0.859,0.4832,-0.0244,-0.067,0.004,-0.017
1670266393.6799839,-9.976,0.053,2.948,0.8592000000000001,0.4853,-0.024900000000000002,-0.044,0.015,-0.001
1670266393.719984,-9.891,-0.084,2.918,0.8573000000000001,0.48360000000000003,-0.028,-0.067,0.02,-0.007
1670266393.759984,-9.852,-0.033,2.793,0.8609,0.48210000000000003,-0.029400000000000003,-0.083,0.006,-0.008
1670266393.799984,-9.859,0.04,2.7720000000000002,0.8580000000000001,0.48600000000000004,-0.027800000000000002,-0.075,0.01,-0.013000000000000001
1670266393.839984,-9.858,0.05,2.77,0.8552000000000001,0.4837,-0.0245,-0.062,0.017,-0.015
1670266393.879984,-9.941,-0.077,2.9,0.8580000000000001,0.4812,-0.0264,-0.069,0.014,-0.008
1670266393.9199839,-9.882,0.045,2.77,0.8605,0.4828,-0.0229,-0.066,0.017,-0.024
1670266393.959984,-9.898,0.026000000000000002,2.83,0.8577,0.4842,-0.0246,-0.074,0.013000000000000001,-0.017
1670266393.999984,-9.861,-0.016,2.815,0.8579,0.48460000000000003,-0.0274,-0.085,0.015,-0.011
1670266394.039984,-9.848,-0.005,2.915,0.8615,0.4839,-0.0236,-0.067,0.001,-0.014
1670266394.079984,-9.891,-0.004,2.827,0.8618,0.4853,-0.026500000000000003,-0.07200000000000001,0.002,-0.013000000000000001
1670266394.119984,-9.848,0.01,2.8040000000000003,0.8565,0.4848,-0.0234,-0.055,-0.011,-0.017
1670266394.1599839,-9.856,-0.019,2.839,0.8564,0.48510000000000003,-0.0234,-0.07200000000000001,0.003,-0.02
1670266394.199984,-9.925,-0.003,2.863,0.8583000000000001,0.48040000000000005,-0.0252,-0.083,-0.001,-0.011
1670266394.239984,-9.855,-0.011,2.834,0.8614,0.48600000000000004,-0.0258,-0.078,0.002,-0.005
1670266394.279984,-9.874,-0.026000000000000002,2.8850000000000002,0.8589,0.4837,-0.024900000000000002,-0.08,0.012,-0.008
1670266394.319984,-9.873,-0.008,2.898,0.8601000000000001,0.4832,-0.0233,-0.066,-0.008,-0.016
1670266394.359983,-9.877,-0.028,2.907,0.8583000000000001,0.48460000000000003,-0.0253,-0.078,0.001,-0.011
1670266394.399983,-9.843,0.01,2.786,0.8581000000000001,0.48450000000000004,-0.0253,-0.078,0.0,-0.008
1670266394.439983,-9.852,-0.02,2.855,0.8577,0.4837,-0.024300000000000002,-0.075,0.004,-0.014
1670266394.4799829,-9.953,-0.053,2.95,0.8587,0.4818,-0.0235,-0.079,0.008,-0.015
1670266394.519983,-9.865,0.045,2.943,0.8573000000000001,0.48400000000000004,-0.0238,-0.084,0.01,-0.015
1670266394.559983,-9.875,0.012,2.791,0.8594,0.4862,-0.027,-0.077,0.013000000000000001,0.0
1670266394.599983,-9.865,-0.027,2.838,0.8595,0.4848,-0.0264,-0.088,0.021,0.001
1670266394.639983,-9.812,0.056,2.7800000000000002,0.8615,0.4862,-0.0264,-0.085,0.013000000000000001,-0.01
1670266394.679983,-9.905,0.01,2.8890000000000002,0.8618,0.48460000000000003,-0.0238,-0.083,0.007,-0.011
1670266394.7199829,-9.91,0.019,2.919,0.8579,0.4844,-0.025,-0.076,0.017,-0.019
1670266394.759983,-9.875,-0.068,2.8810000000000002,0.8589,0.4833,-0.027,-0.093,0.022,-0.012
1670266394.799983,-9.849,0.073,2.7960000000000003,0.8606,0.4829,-0.026600000000000002,-0.082,0.008,-0.004
1670266394.839983,-9.883000000000001,-0.021,2.857,0.8586,0.48460000000000003,-0.026000000000000002,-0.08,0.009000000000000001,-0.011
1670266394.879983,-9.856,0.008,2.7960000000000003,0.8607,0.4828,-0.028300000000000002,-0.082,0.004,-0.011
1670266394.919983,-9.876,-0.004,2.894,0.8575,0.4843,-0.024300000000000002,-0.07200000000000001,-0.002,-0.015
1670266394.9599829,-9.898,-0.005,2.852,0.8576,0.4832,-0.026600000000000002,-0.075,-0.001,-0.022
1670266394.999983,-9.863,0.016,2.84,0.8597,0.48350000000000004,-0.0253,-0.073,0.013000000000000001,-0.008
1670266395.039983,-9.885,0.03,2.884,0.8597,0.4829,-0.0238,-0.078,0.009000000000000001,-0.011
1670266395.079983,-9.918000000000001,-0.013000000000000001,2.872,0.8594,0.4824,-0.0245,-0.093,0.016,-0.012
1670266395.119983,-9.887,0.011,2.9,0.8570000000000001,0.48350000000000004,-0.0251,-0.078,0.015,-0.012
1670266395.159983,-9.856,-0.003,2.823,0.8601000000000001,0.48560000000000003,-0.0253,-0.081,0.018000000000000002,-0.014
1670266395.199983,-9.912,-0.007,2.868,0.8586,0.4839,-0.023100000000000002,-0.08600000000000001,0.002,-0.013000000000000001
1670266395.239983,-9.897,0.026000000000000002,2.86,0.8595,0.4842,-0.028,-0.083,0.0,-0.012
1670266395.279983,-9.888,-0.011,2.882,0.8615,0.4842,-0.023200000000000002,-0.067,0.009000000000000001,-0.021
1670266395.319983,-9.955,-0.017,2.974,0.8580000000000001,0.4854,-0.0261,-0.066,0.005,-0.012
1670266395.359983,-9.822000000000001,0.004,2.822,0.8637,0.4843,-0.0252,-0.083,0.008,-0.016
1670266395.399982,-9.943,0.049,2.851,0.8550000000000001,0.48310000000000003,-0.0216,-0.069,0.02,-0.002
1670266395.439982,-9.871,-0.043000000000000003,2.785,0.86,0.4844,-0.0256,-0.08,0.008,-0.006
1670266395.479982,-9.882,0.014,2.827,0.8567,0.48510000000000003,-0.027200000000000002,-0.085,0.009000000000000001,-0.016
1670266395.5199819,-9.88,-0.016,2.851,0.8614,0.4837,-0.0252,-0.089,0.005,-0.017
1670266395.559982,-9.921,0.02,2.904,0.8614,0.48210000000000003,-0.0257,-0.083,0.0,-0.017
1670266395.599982,-9.943,-0.025,2.842,0.8614,0.4828,-0.0261,-0.076,-0.001,-0.023
1670266395.639982,-9.888,-0.022,2.886,0.8614,0.48550000000000004,-0.0269,-0.089,0.0,-0.02
1670266395.679982,-9.895,-0.019,2.908,0.8623000000000001,0.48190000000000005,-0.025400000000000002,-0.075,0.006,-0.014
1670266395.719982,-9.874,0.01,2.783,0.8512000000000001,0.4832,-0.015300000000000001,-0.10300000000000001,-0.003,-0.013000000000000001
1670266395.7599819,-9.852,-0.015,2.876,0.8576,0.48350000000000004,-0.0466,-0.069,0.009000000000000001,-0.018000000000000002
1670266395.799982,-9.931000000000001,-0.018000000000000002,2.866,0.8481000000000001,0.47790000000000005,-0.0091,-0.08,-0.002,-0.015
1670266395.839982,-9.931000000000001,0.003,2.845,0.8481000000000001,0.47800000000000004,0.0026000000000000003,-0.08700000000000001,0.0,-0.015
1670266395.879982,-9.870000000000001,0.003,2.861,0.8594,0.47800000000000004,-0.028800000000000003,-0.068,0.0,-0.024
1670266395.919982,-9.882,-0.024,2.861,0.8626,0.48500000000000004,-0.028800000000000003,-0.08,0.011,-0.016
1670266395.959982,-9.925,-0.013000000000000001,2.906,0.8589,0.48500000000000004,-0.0368,-0.08700000000000001,0.002,-0.017
1670266395.9999819,-9.855,-0.029,2.855,0.8538,0.48460000000000003,-0.0379,-0.095,0.011,-0.008
1670266396.039982,-9.895,-0.011,2.87,0.8595,0.48410000000000003,-0.049800000000000004,-0.085,0.008,-0.009000000000000001
1670266396.079982,-9.88,-0.047,2.879,0.8562000000000001,0.48190000000000005,-0.0298,-0.078,0.005,-0.015
1670266396.119982,-9.888,-0.003,2.821,0.8530000000000001,0.4823,-0.0187,-0.085,0.005,-0.012
1670266396.159982,-9.916,0.022,2.843,0.8588,0.48350000000000004,-0.023100000000000002,-0.07200000000000001,0.009000000000000001,-0.013000000000000001
1670266396.199982,-9.867,-0.038,2.895,0.8621000000000001,0.4839,-0.0261,-0.074,0.001,-0.017
1670266396.239982,-9.921,-0.032,2.839,0.859,0.4828,-0.0292,-0.089,0.009000000000000001,-0.015
1670266396.279982,-9.861,0.0,2.91,0.8628,0.48500000000000004,-0.025,-0.069,0.007,-0.011
1670266396.319982,-9.908,-0.007,2.824,0.8586,0.48460000000000003,-0.0238,-0.083,0.011,-0.011
1670266396.359982,-9.895,-0.023,2.854,0.8567,0.48400000000000004,-0.0263,-0.063,0.037,-0.018000000000000002
1670266396.399982,-9.872,-0.034,2.914,0.8509,0.4824,-0.0244,-0.091,-0.019,-0.018000000000000002
1670266396.439981,-9.974,-0.07200000000000001,2.9130000000000003,0.8607,0.48350000000000004,-0.0256,-0.08,0.016,-0.008
1670266396.479981,-9.831,0.025,2.864,0.8516,0.47800000000000004,-0.0189,-0.062,0.0,-0.02
1670266396.519981,-10.016,-0.066,2.844,0.8559,0.48460000000000003,-0.0263,-0.061,0.05,-0.018000000000000002
1670266396.5599809,-9.818,0.0,2.7760000000000002,0.8561000000000001,0.4828,-0.026000000000000002,-0.063,0.036000000000000004,-0.005
1670266396.599981,-9.826,-0.013000000000000001,2.787,0.8567,0.4823,-0.0297,-0.08700000000000001,-0.002,-0.01
1670266396.639981,-9.919,-0.035,2.842,0.8583000000000001,0.4824,-0.0267,-0.075,0.023,-0.024
1670266396.679981,-9.877,-0.037,2.869,0.8608,0.4828,-0.0279,-0.079,-0.01,-0.018000000000000002
1670266396.719981,-9.912,0.0,2.852,0.8608,0.48310000000000003,-0.029500000000000002,-0.082,0.008,-0.025
1670266396.759981,-9.873,-0.037,2.836,0.859,0.48510000000000003,-0.026000000000000002,-0.073,-0.006,-0.024
1670266396.7999809,-9.85,-0.012,2.8080000000000003,0.8602000000000001,0.48410000000000003,-0.0261,-0.093,0.011,-0.003
1670266396.839981,-9.852,-0.001,2.791,0.8585,0.4847,-0.0267,-0.09,-0.005,-0.017
1670266396.879981,-9.925,-0.042,2.884,0.8562000000000001,0.4843,-0.0291,-0.09,0.007,-0.016
1670266396.919981,-9.83,-0.016,2.824,0.8617,0.4843,-0.027100000000000003,-0.076,-0.004,-0.024
1670266396.959981,-9.876,-0.035,2.823,0.8572000000000001,0.4848,-0.0275,-0.093,-0.01,-0.008
1670266396.999981,-9.893,-0.016,2.807,0.8559,0.4853,-0.0258,-0.084,-0.01,-0.006
1670266397.039981,-9.907,-0.02,2.797,0.8460000000000001,0.48450000000000004,-0.0244,-0.068,0.001,-0.017
1670266397.079981,-9.835,0.001,2.861,0.8578,0.4832,-0.025500000000000002,-0.056,-0.001,-0.021
1670266397.119981,-9.806000000000001,-0.092,2.794,0.8613000000000001,0.48550000000000004,-0.026000000000000002,-0.098,-0.008,-0.016
1670266397.159981,-10.028,0.038,2.942,0.8587,0.4847,-0.0245,-0.054,0.015,-0.005
1670266397.199981,-9.905,-0.10300000000000001,2.882,0.859,0.4853,-0.026600000000000002,-0.089,0.01,-0.008
1670266397.239981,-9.822000000000001,-0.041,2.842,0.8521000000000001,0.4828,-0.0268,-0.079,0.005,-0.018000000000000002
1670266397.279981,-9.84,0.007,2.777,0.8608,0.4847,-0.025,-0.082,0.011,-0.021
1670266397.319981,-9.919,-0.025,2.875,0.8556,0.4823,-0.0253,-0.082,0.006,-0.012
1670266397.359981,-9.976,-0.058,2.873,0.86,0.48250000000000004,-0.027800000000000002,-0.079,0.016,-0.018000000000000002
1670266397.399981,-9.903,-0.05,2.86,0.8594,0.4842,-0.0261,-0.074,0.013000000000000001,-0.022
1670266397.439981,-9.875,-0.02,2.813,0.8568,0.4853,-0.025,-0.076,0.004,-0.007
1670266397.399981,-9.896,-0.031,2.83,0.8572000000000001,0.4832,-0.0258,-0.074,0.001,-0.017
1670266397.439981,-9.874,-0.031,2.813,0.8595,0.48350000000000004,-0.023700000000000002,-0.077,-0.001,-0.016
1670266397.47998,-9.861,-0.028,2.875,0.8586,0.48450000000000004,-0.0285,-0.079,0.001,-0.012
1670266397.51998,-9.867,-0.005,2.84,0.8551000000000001,0.4854,-0.0244,-0.074,-0.001,-0.009000000000000001
1670266397.55998,-9.881,-0.047,2.839,0.8589,0.4867,-0.027200000000000002,-0.07200000000000001,0.014,-0.018000000000000002
1670266397.5999799,-9.9,-0.033,2.864,0.8597,0.48410000000000003,-0.0246,-0.08700000000000001,0.017,-0.015
1670266397.63998,-9.879,-0.051000000000000004,2.847,0.8573000000000001,0.4858,-0.027200000000000002,-0.096,0.008,0.002
1670266397.67998,-9.873,-0.033,2.815,0.8586,0.48650000000000004,-0.0275,-0.08,0.01,-0.021
1670266397.71998,-9.897,-0.062,2.86,0.8574,0.4859,-0.0256,-0.083,0.002,-0.011
1670266397.75998,-9.877,-0.014,2.806,0.8573000000000001,0.4813,-0.029,-0.07100000000000001,0.011,-0.013000000000000001
1670266397.79998,-9.861,-0.046,2.871,0.8571000000000001,0.4837,-0.024200000000000003,-0.07,0.002,-0.01
1670266397.83998,-9.778,-0.037,2.77,0.8559,0.48710000000000003,-0.025,-0.078,0.01,-0.012
1670266397.87998,-9.951,0.016,2.838,0.8551000000000001,0.4842,-0.026500000000000003,-0.06,0.02,0.0
1670266397.91998,-9.94,-0.061,2.843,0.8578,0.48310000000000003,-0.0264,-0.08700000000000001,0.008,-0.003
1670266397.95998,-9.858,-0.035,2.783,0.8588,0.4854,-0.0244,-0.08700000000000001,0.016,-0.019
1670266397.99998,-9.846,-0.034,2.79,0.8562000000000001,0.48300000000000004,-0.027200000000000002,-0.088,-0.001,-0.014
1670266398.03998,-9.915000000000001,-0.006,2.813,0.8586,0.48700000000000004,-0.026500000000000003,-0.092,0.007,-0.011
1670266398.07998,-9.949,-0.049,2.805,0.8551000000000001,0.48600000000000004,-0.027100000000000003,-0.069,0.018000000000000002,-0.014
1670266398.11998,-9.88,-0.031,2.825,0.8554,0.48460000000000003,-0.027700000000000002,-0.064,0.011,-0.02
1670266398.15998,-9.851,-0.078,2.836,0.8559,0.48450000000000004,-0.024,-0.076,0.003,-0.008
1670266398.19998,-9.877,-0.018000000000000002,2.809,0.8581000000000001,0.4859,-0.0274,-0.092,0.003,-0.014
1670266398.23998,-9.899000000000001,-0.037,2.815,0.8569,0.4853,-0.0258,-0.077,0.0,-0.023
1670266398.27998,-9.944,-0.046,2.9050000000000002,0.8564,0.48450000000000004,-0.0273,-0.079,-0.003,-0.024
1670266398.31998,-9.88,-0.04,2.824,0.8587,0.48600000000000004,-0.0252,-0.07,0.003,-0.016
1670266398.35998,-9.883000000000001,-0.053,2.817,0.8584,0.4843,-0.027700000000000002,-0.083,0.0,-0.017
1670266398.39998,-9.882,-0.04,2.86,0.8578,0.4839,-0.026500000000000003,-0.078,0.007,-0.018000000000000002
1670266398.43998,-9.861,-0.045,2.785,0.8562000000000001,0.48560000000000003,-0.029300000000000003,-0.08700000000000001,0.0,-0.008
1670266398.47998,-9.906,-0.064,2.81,0.8575,0.4843,-0.0263,-0.08600000000000001,0.0,-0.007
1670266398.519979,-9.874,-0.04,2.873,0.8501000000000001,0.4837,-0.0267,-0.08600000000000001,0.004,-0.014
1670266398.559979,-9.899000000000001,-0.052000000000000005,2.888,0.8595,0.4857,-0.0297,-0.077,-0.003,-0.011
1670266398.599979,-9.927,-0.024,2.845,0.8566,0.4842,-0.0304,-0.068,0.003,-0.025
1670266398.639979,-9.835,-0.091,2.821,0.8572000000000001,0.4837,-0.0287,-0.08,0.017,-0.022
1670266398.679979,-9.979000000000001,0.041,2.872,0.8592000000000001,0.4864,-0.0256,-0.069,0.016,0.0
1670266398.719979,-9.94,-0.098,2.864,0.8582000000000001,0.48600000000000004,-0.0281,-0.08,0.014,-0.002
1670266398.759979,-9.862,-0.014,2.842,0.8583000000000001,0.4817,-0.0275,-0.08700000000000001,0.007,-0.02
1670266398.799979,-9.856,-0.032,2.8000000000000003,0.8584,0.48600000000000004,-0.027200000000000002,-0.08700000000000001,0.007,-0.013000000000000001
1670266398.839979,-9.886000000000001,0.016,2.7880000000000003,0.8549,0.4849,-0.0269,-0.085,0.002,-0.01
1670266398.879979,-9.962,-0.038,2.876,0.8519,0.4834,-0.028200000000000003,-0.075,0.014,-0.021
1670266398.919979,-9.856,-0.09,2.869,0.8548,0.4862,-0.0263,-0.091,0.016,-0.016
1670266398.959979,-9.896,-0.04,2.939,0.8572000000000001,0.48200000000000004,-0.0296,-0.083,0.013000000000000001,-0.001
1670266398.999979,-9.934000000000001,-0.079,2.849,0.8557,0.4822,-0.028200000000000003,-0.09,0.01,-0.006
1670266399.039979,-9.934000000000001,-0.031,2.876,0.8549,0.48610000000000003,-0.0274,-0.067,0.012,-0.018000000000000002
1670266399.079979,-9.882,-0.069,2.875,0.8566,0.48560000000000003,-0.027800000000000002,-0.085,-0.004,-0.011
1670266399.119979,-9.955,-0.014,2.824,0.8547,0.4844,-0.027200000000000002,-0.074,-0.008,0.003
1670266399.159979,-9.883000000000001,-0.043000000000000003,2.8770000000000002,0.8451000000000001,0.48050000000000004,-0.0188,-0.056,0.018000000000000002,-0.015
1670266399.199979,-9.954,0.037,2.861,0.8568,0.48550000000000004,-0.0234,-0.03,0.014,0.004
1670266399.239979,-9.904,-0.047,2.824,0.8589,0.48100000000000004,-0.0164,-0.004,0.01,0.0
1670266399.279979,-9.988,-0.028,2.86,0.8571000000000001,0.4847,-0.0253,-0.058,0.006,-0.014
1670266399.319979,-9.827,-0.017,2.718,0.8550000000000001,0.48350000000000004,-0.0274,-0.08700000000000001,0.005,-0.012
1670266399.359979,-9.827,0.037,2.807,0.8550000000000001,0.48350000000000004,-0.023,-0.083,-0.006,-0.016
1670266399.399979,-9.924,0.037,2.8890000000000002,0.8562000000000001,0.48350000000000004,-0.0114,-0.067,0.0,-0.02
1670266399.439979,-9.926,-0.005,2.8890000000000002,0.8558,0.4818,-0.0114,-0.059000000000000004,-0.016,-0.031
1670266399.479979,-9.91,-0.029,2.836,0.8576,0.4829,-0.0431,-0.077,-0.005,-0.019
1670266399.519979,-9.894,-0.015,2.831,0.8548,0.4817,-0.036000000000000004,-0.077,-0.007,-0.029
1670266399.559978,-9.869,-0.002,2.907,0.8564,0.4843,-0.0256,-0.059000000000000004,0.005,-0.012
1670266399.599978,-9.935,0.017,2.869,0.8542000000000001,0.4824,-0.013000000000000001,-0.081,-0.012,-0.004
1670266399.639978,-9.856,0.008,2.773,0.8543000000000001,0.48210000000000003,-0.0386,-0.094,0.007,-0.015
1670266399.679978,-9.857,-0.044,2.892,0.8561000000000001,0.4839,-0.0368,-0.073,0.004,-0.015
1670266399.719978,-9.859,0.0,2.835,0.8566,0.4827,-0.0233,-0.077,-0.017,-0.009000000000000001
1670266399.759978,-9.916,0.06,2.825,0.8521000000000001,0.48200000000000004,-0.021500000000000002,-0.068,0.0,-0.015
1670266399.799978,-9.956,-0.079,2.884,0.8564,0.4848,-0.025500000000000002,-0.07100000000000001,-0.001,-0.014
1670266399.839978,-9.905,0.011,2.876,0.8440000000000001,0.4803,-0.0159,-0.069,0.0,-0.001
1670266399.879978,-9.918000000000001,-0.028,2.891,0.8550000000000001,0.4782,-0.026000000000000002,-0.067,-0.004,-0.013000000000000001
1670266399.919978,-9.93,-0.014,2.916,0.8570000000000001,0.4844,-0.025,-0.076,-0.005,-0.016
1670266399.959978,-9.91,-0.011,2.948,0.8563000000000001,0.48510000000000003,-0.0258,-0.07200000000000001,-0.003,-0.015
1670266399.999978,-9.859,0.04,2.841,0.8562000000000001,0.48040000000000005,-0.027100000000000003,-0.076,0.004,-0.014
1670266400.039978,-9.8,0.003,2.832,0.8564,0.4848,-0.025,-0.083,-0.007,-0.011
1670266400.079978,-9.933,-0.02,2.926,0.8565,0.4822,-0.024,-0.078,0.009000000000000001,-0.013000000000000001
1670266400.119978,-9.872,0.0,2.878,0.8571000000000001,0.48310000000000003,-0.025500000000000002,-0.084,0.001,-0.009000000000000001
1670266400.159978,-9.894,0.002,2.886,0.8558,0.4828,-0.0253,-0.08600000000000001,0.005,-0.017
1670266400.199978,-9.846,-0.006,2.836,0.859,0.48510000000000003,-0.0233,-0.08700000000000001,0.0,-0.003
1670266400.239978,-9.902000000000001,-0.005,2.9,0.8571000000000001,0.48310000000000003,-0.0246,-0.076,0.007,-0.018000000000000002
1670266400.279978,-9.902000000000001,-0.036000000000000004,2.9050000000000002,0.8603000000000001,0.4803,-0.025,-0.069,0.004,-0.019
1670266400.319978,-9.837,-0.036000000000000004,2.918,0.8572000000000001,0.4843,-0.0256,-0.067,0.0,-0.017
1670266400.359978,-9.881,-0.039,2.884,0.8554,0.48210000000000003,-0.0263,-0.075,0.014,-0.009000000000000001
1670266400.399978,-9.9,0.053,2.997,0.8522000000000001,0.4838,-0.022500000000000003,-0.07,0.029,-0.004
1670266400.439978,-9.913,-0.01,2.887,0.8555,0.4843,-0.0235,-0.068,0.005,-0.011
1670266400.4799778,-9.859,-0.02,2.86,0.8562000000000001,0.48260000000000003,-0.0241,-0.085,0.021,-0.013000000000000001
1670266400.519978,-9.831,0.026000000000000002,2.8000000000000003,0.8553000000000001,0.4834,-0.0275,-0.08,0.022,-0.006
1670266400.559978,-9.91,0.03,2.847,0.8566,0.4842,-0.0241,-0.077,0.013000000000000001,0.0
1670266400.599977,-9.93,0.02,2.91,0.8583000000000001,0.48150000000000004,-0.025500000000000002,-0.069,0.007,-0.014
1670266400.639977,-9.86,-0.043000000000000003,2.774,0.8533000000000001,0.4824,-0.028300000000000002,-0.066,0.014,-0.019
1670266400.679977,-9.86,0.095,2.854,0.8556,0.48400000000000004,-0.028,-0.077,0.005,-0.012
1670266400.719977,-9.859,-0.008,2.837,0.8581000000000001,0.4818,-0.027700000000000002,-0.089,-0.004,-0.002
1670266400.759977,-9.877,0.019,2.846,0.8528,0.4824,-0.0263,-0.079,0.01,-0.018000000000000002
1670266400.799977,-9.928,-0.008,2.934,0.8562000000000001,0.4842,-0.0246,-0.084,-0.006,-0.016
1670266400.839977,-9.876,0.042,2.875,0.8563000000000001,0.48100000000000004,-0.026600000000000002,-0.083,0.005,-0.007
1670266400.879977,-9.831,-0.012,2.865,0.8553000000000001,0.48150000000000004,-0.0247,-0.065,0.009000000000000001,-0.019
1670266400.919977,-9.873,-0.02,2.9170000000000003,0.8558,0.4843,-0.0247,-0.081,0.005,-0.016
1670266400.959977,-9.939,0.016,2.8930000000000002,0.8573000000000001,0.48260000000000003,-0.025500000000000002,-0.088,0.01,-0.005
1670266400.999977,-9.872,0.0,2.831,0.8579,0.4817,-0.0279,-0.08,0.011,-0.009000000000000001
1670266401.039977,-9.854000000000001,-0.002,2.876,0.8565,0.48400000000000004,-0.0253,-0.093,0.004,-0.011
1670266401.079977,-9.897,-0.012,2.858,0.8559,0.4837,-0.0252,-0.09,0.016,-0.009000000000000001
1670266401.119977,-9.898,0.011,2.87,0.8570000000000001,0.4828,-0.027800000000000002,-0.078,0.003,-0.018000000000000002
1670266401.159977,-9.81,0.016,2.8120000000000003,0.8579,0.4833,-0.0261,-0.07,0.007,-0.013000000000000001
1670266401.199977,-9.856,-0.011,2.807,0.8554,0.4848,-0.0267,-0.08600000000000001,0.017,-0.012
1670266401.239977,-9.931000000000001,0.045,2.9170000000000003,0.8536,0.4833,-0.024800000000000003,-0.073,0.01,-0.014
1670266401.2799768,-9.876,0.019,2.846,0.8573000000000001,0.48350000000000004,-0.0258,-0.069,0.02,-0.005
1670266401.319977,-9.849,0.012,2.846,0.8555,0.4854,-0.027200000000000002,-0.097,0.008,-0.012
1670266401.359977,-9.859,0.021,2.797,0.8564,0.4818,-0.0224,-0.09,0.012,-0.013000000000000001
1670266401.399977,-9.879,0.002,2.8890000000000002,0.8583000000000001,0.4842,-0.0252,-0.08700000000000001,0.005,-0.016
1670266401.439977,-9.901,0.001,2.874,0.8579,0.48260000000000003,-0.0261,-0.08,0.015,-0.018000000000000002
1670266401.479977,-9.91,-0.105,2.872,0.8529,0.4828,-0.031,-0.093,0.02,-0.028
1670266401.5199769,-9.884,0.089,2.781,0.859,0.48360000000000003,-0.0263,-0.063,0.003,-0.015
1670266401.559977,-9.858,-0.02,2.863,0.8564,0.4839,-0.0267,-0.081,-0.004,0.0
1670266401.599977,-9.892,0.009000000000000001,2.842,0.8572000000000001,0.48350000000000004,-0.025,-0.07,-0.005,-0.005
1670266401.639977,-9.847,0.005,2.819,0.8574,0.4848,-0.026500000000000003,-0.065,-0.005,-0.004
1670266401.679977,-9.889,-0.022,2.836,0.8565,0.48450000000000004,-0.028300000000000002,-0.082,-0.004,-0.004
1670266401.719976,-9.869,0.013000000000000001,2.843,0.8586,0.4823,-0.024900000000000002,-0.085,-0.003,-0.015
1670266401.759976,-9.892,-0.01,2.895,0.8452000000000001,0.4796,-0.0154,-0.09,-0.003,-0.011
1670266401.799976,-9.921,0.004,2.938,0.8567,0.4818,-0.023700000000000002,-0.091,0.001,-0.014
1670266401.839976,-9.913,0.011,2.879,0.8559,0.4834,-0.025500000000000002,-0.088,0.009000000000000001,-0.007
1670266401.879976,-9.882,0.001,2.892,0.8579,0.4818,-0.0257,-0.074,0.007,-0.028
1670266401.919976,-9.842,-0.008,2.835,0.8556,0.48460000000000003,-0.0262,-0.08,0.007,-0.001
1670266401.959976,-9.919,-0.001,2.8810000000000002,0.8568,0.4837,-0.027200000000000002,-0.098,0.001,-0.015
1670266401.999976,-9.905,0.008,2.878,0.8567,0.4824,-0.0245,-0.08,0.011,-0.012
1670266402.039976,-9.828,-0.026000000000000002,2.869,0.8597,0.4813,-0.0224,-0.082,-0.004,-0.027
1670266402.0799758,-9.882,-0.041,2.83,0.8587,0.4837,-0.025500000000000002,-0.084,0.0,-0.023
1670266402.119976,-9.873,0.092,2.867,0.8568,0.4827,-0.025900000000000003,-0.075,-0.003,-0.028
1670266402.159976,-9.889,-0.034,2.8080000000000003,0.8592000000000001,0.48510000000000003,-0.0234,-0.081,0.017,-0.01
1670266402.199976,-9.814,-0.019,2.766,0.8551000000000001,0.48210000000000003,-0.0269,-0.079,0.033,-0.014
1670266402.239976,-9.786,-0.01,2.725,0.8572000000000001,0.4824,-0.027600000000000003,-0.08700000000000001,-0.007,-0.021
1670266402.279976,-9.919,-0.031,2.923,0.8585,0.4829,-0.0245,-0.067,0.025,-0.016
1670266402.3199759,-9.864,-0.018000000000000002,2.849,0.8568,0.4859,-0.025500000000000002,-0.081,-0.021,-0.022
1670266402.359976,-9.927,-0.098,2.916,0.859,0.48460000000000003,-0.024800000000000003,-0.077,0.008,-0.025
1670266402.399976,-9.736,0.027,2.758,0.8581000000000001,0.4838,-0.0241,-0.08,0.02,-0.013000000000000001
1670266402.439976,-10.025,-0.039,2.896,0.8547,0.48260000000000003,-0.0241,-0.084,-0.014,-0.009000000000000001
1670266402.479976,-9.872,-0.001,2.838,0.8575,0.48460000000000003,-0.026600000000000002,-0.076,0.029,-0.008
1670266402.519976,-9.857,0.0,2.864,0.8568,0.48500000000000004,-0.0274,-0.068,-0.045,-0.031
1670266402.5599759,-9.881,-0.023,2.946,0.8538,0.4879,-0.027100000000000003,-0.068,0.002,-0.02
1670266402.599976,-9.88,-0.061,2.874,0.8479,0.4818,-0.0207,-0.08,-0.017,-0.017
1670266402.639976,-9.925,-0.04,2.916,0.8572000000000001,0.4844,-0.0264,-0.076,-0.001,-0.015
1670266402.679976,-9.835,-0.027,2.835,0.8520000000000001,0.48460000000000003,-0.025500000000000002,-0.083,0.04,-0.01
1670266402.719976,-9.98,-0.053,2.974,0.8558,0.4828,-0.0263,-0.093,-0.003,-0.016
1670266402.759975,-9.868,-0.048,2.912,0.8564,0.4843,-0.0267,-0.09,0.016,-0.013000000000000001
1670266402.799975,-9.913,-0.035,2.87,0.8570000000000001,0.48350000000000004,-0.025900000000000003,-0.08700000000000001,-0.006,-0.009000000000000001
1670266402.839975,-9.934000000000001,-0.023,2.9090000000000003,0.8537,0.48200000000000004,-0.0164,-0.084,0.0,-0.014
1670266402.879975,-9.871,-0.059000000000000004,2.8890000000000002,0.8575,0.4827,-0.036500000000000005,-0.058,0.0,-0.021
1670266402.919975,-9.93,-0.077,2.879,0.8557,0.4864,-0.0188,-0.056,0.0,-0.018000000000000002
1670266402.959975,-9.93,0.012,3.009,0.8557,0.4832,-0.019700000000000002,-0.082,0.005,-0.008
1670266402.999975,-9.908,0.012,2.854,0.8548,0.4832,-0.0427,-0.073,0.006,-0.011
1670266403.039975,-9.907,-0.057,2.89,0.8543000000000001,0.48210000000000003,-0.0427,-0.085,-0.003,-0.005
1670266403.079975,-9.88,-0.026000000000000002,2.89,0.8550000000000001,0.48150000000000004,-0.0368,-0.082,-0.009000000000000001,-0.018000000000000002
1670266403.1199749,-9.807,-0.023,2.846,0.8541000000000001,0.4806,-0.0356,-0.09,0.006,-0.024
1670266403.159975,-9.877,-0.037,2.971,0.8565,0.4864,-0.0252,-0.07,0.006,-0.01
1670266403.199975,-9.908,-0.055,2.922,0.8487,0.48450000000000004,0.0025,-0.074,0.024,-0.011
1670266403.239975,-9.848,-0.068,2.87,0.8550000000000001,0.4827,-0.0361,-0.077,0.016,-0.009000000000000001
1670266403.279975,-9.844,0.014,2.884,0.8455,0.4793,-0.015700000000000002,-0.084,0.009000000000000001,-0.002
1670266403.319975,-9.866,-0.044,2.878,0.8521000000000001,0.48460000000000003,-0.0213,-0.082,0.0,-0.016
1670266403.3599749,-9.914,-0.035,2.949,0.8561000000000001,0.48350000000000004,-0.026500000000000003,-0.073,0.008,-0.015
1670266403.399975,-9.874,-0.053,2.918,0.8553000000000001,0.48510000000000003,-0.025,-0.074,0.001,-0.016
1670266403.439975,-9.852,-0.036000000000000004,2.886,0.8575,0.4839,-0.0253,-0.073,-0.001,-0.009000000000000001
1670266403.479975,-9.84,-0.05,2.9130000000000003,0.8562000000000001,0.4842,-0.024200000000000003,-0.078,0.001,-0.013000000000000001
1670266403.519975,-9.922,-0.029,2.896,0.8562000000000001,0.4839,-0.023100000000000002,-0.083,0.012,-0.016
1670266403.559975,-9.924,-0.06,2.8850000000000002,0.8570000000000001,0.4867,-0.023700000000000002,-0.09,0.018000000000000002,-0.013000000000000001
1670266403.5999749,-9.862,-0.065,2.898,0.8550000000000001,0.4839,-0.028900000000000002,-0.094,0.0,-0.008
1670266403.639975,-9.89,-0.001,2.861,0.8560000000000001,0.48350000000000004,-0.0244,-0.078,0.012,-0.014
1670266403.679975,-9.868,-0.049,2.828,0.8560000000000001,0.48650000000000004,-0.0264,-0.07,0.0,-0.017
1670266403.719975,-9.897,-0.044,2.915,0.8556,0.4839,-0.0291,-0.089,0.01,-0.021
1670266403.759975,-9.826,-0.07100000000000001,2.873,0.8565,0.48350000000000004,-0.0264,-0.077,0.011,-0.016
1670266403.799974,-9.94,0.002,2.8890000000000002,0.8543000000000001,0.48600000000000004,-0.0228,-0.083,0.004,0.0
1670266403.839974,-9.959,-0.085,2.894,0.8524,0.4818,-0.0257,-0.078,0.003,-0.003
1670266403.879974,-9.826,-0.038,2.88,0.8585,0.4842,-0.025,-0.093,0.007,-0.015
1670266403.9199739,-9.848,-0.034,2.806,0.8456,0.4828,-0.0159,-0.08700000000000001,0.007,-0.01
1670266403.959974,-9.901,-0.018000000000000002,2.907,0.8562000000000001,0.4829,-0.025400000000000002,-0.081,0.01,-0.008
1670266403.999974,-9.902000000000001,-0.025,2.827,0.8536,0.48360000000000003,-0.024800000000000003,-0.075,0.018000000000000002,-0.012
1670266404.039974,-9.864,-0.06,2.878,0.8565,0.48460000000000003,-0.024900000000000002,-0.075,0.002,-0.003
1670266404.079974,-9.825000000000001,-0.02,2.818,0.8570000000000001,0.48400000000000004,-0.030100000000000002,-0.089,-0.002,0.002
1670266404.119974,-9.873,-0.017,2.816,0.8546,0.48510000000000003,-0.027800000000000002,-0.079,0.001,-0.014
1670266404.1599739,-9.894,-0.047,2.912,0.8575,0.4833,-0.025,-0.078,0.001,-0.02
1670266404.199974,-9.898,-0.026000000000000002,2.853,0.8568,0.48500000000000004,-0.0252,-0.082,-0.001,-0.01
1670266404.239974,-9.834,-0.007,2.843,0.8547,0.48500000000000004,-0.024900000000000002,-0.07100000000000001,0.003,-0.023
1670266404.279974,-9.867,-0.038,2.825,0.8556,0.48500000000000004,-0.0261,-0.085,0.009000000000000001,-0.02
1670266404.319974,-9.895,-0.038,2.8890000000000002,0.8593000000000001,0.4873,-0.029400000000000003,-0.08600000000000001,0.008,-0.017
1670266404.359974,-9.824,-0.044,2.852,0.8546,0.4839,-0.0258,-0.1,0.006,-0.01
1670266404.3999739,-9.885,-0.049,2.903,0.8564,0.48500000000000004,-0.0253,-0.078,-0.001,-0.015
1670266404.439974,-9.843,-0.022,2.85,0.8556,0.48650000000000004,-0.0274,-0.08600000000000001,0.003,-0.002
1670266404.479974,-9.913,-0.034,2.912,0.8548,0.48400000000000004,-0.028,-0.078,0.008,-0.012
1670266404.519974,-9.853,-0.064,2.9330000000000003,0.8573000000000001,0.4844,-0.0268,-0.073,0.01,-0.022
1670266404.559974,-9.862,-0.11,2.834,0.8567,0.4857,-0.027100000000000003,-0.083,0.007,-0.017
1670266404.599974,-9.917,0.031,2.96,0.8555,0.4859,-0.0281,-0.082,0.01,0.005
1670266404.6399739,-9.919,-0.084,2.947,0.8538,0.4842,-0.0245,-0.092,0.01,0.0
1670266404.679974,-9.836,-0.035,2.847,0.8578,0.4839,-0.0244,-0.089,0.012,-0.014
1670266404.719974,-9.858,-0.014,2.834,0.8577,0.48510000000000003,-0.0273,-0.096,0.006,-0.007
1670266404.759974,-9.872,0.01,2.8080000000000003,0.8595,0.4832,-0.0268,-0.089,0.0,-0.016
1670266404.799974,-9.868,-0.006,2.834,0.8570000000000001,0.4837,-0.0269,-0.075,0.016,-0.014
1670266404.839973,-9.857,-0.10400000000000001,2.803,0.8535,0.48200000000000004,-0.025,-0.074,0.006,-0.013000000000000001
1670266404.879973,-9.881,0.014,2.845,0.8570000000000001,0.48460000000000003,-0.0258,-0.065,0.014,-0.008
1670266404.919973,-9.919,-0.073,2.882,0.8575,0.4847,-0.024900000000000002,-0.066,0.001,0.0
1670266404.9599729,-9.892,-0.055,2.866,0.8553000000000001,0.4832,-0.028900000000000002,-0.075,0.025,0.003
1670266404.999973,-9.88,0.007,2.846,0.8592000000000001,0.48450000000000004,-0.027100000000000003,-0.062,0.002,-0.014
1670266405.039973,-9.898,-0.007,2.822,0.8545,0.4834,-0.026500000000000003,-0.074,0.008,-0.012
1670266405.079973,-9.882,-0.007,2.814,0.8561000000000001,0.4829,-0.0256,-0.075,0.0,-0.012
1670266405.119973,-9.846,-0.026000000000000002,2.867,0.8578,0.4842,-0.0281,-0.079,0.0,-0.016
1670266405.159973,-9.865,-0.052000000000000005,2.873,0.8561000000000001,0.4853,-0.026000000000000002,-0.088,-0.002,-0.002
1670266405.1999729,-9.912,-0.026000000000000002,2.838,0.8550000000000001,0.48360000000000003,-0.0286,-0.077,-0.005,-0.018000000000000002
1670266405.239973,-9.922,-0.002,2.88,0.8556,0.48700000000000004,-0.0264,-0.055,0.002,-0.03
1670266405.279973,-9.845,-0.061,2.843,0.8586,0.4853,-0.0257,-0.067,-0.008,-0.008
1670266405.319973,-9.862,-0.023,2.866,0.8569,0.4848,-0.024,-0.08700000000000001,-0.019,-0.014
1670266405.359973,-9.876,-0.055,2.944,0.8568,0.4849,-0.0261,-0.079,-0.005,-0.02
1670266405.399973,-9.846,-0.041,2.919,0.8556,0.48460000000000003,-0.0252,-0.073,0.001,-0.028
1670266405.4399729,-9.783,-0.055,2.74,0.8577,0.4834,-0.023,-0.08700000000000001,-0.002,-0.019
1670266405.479973,-9.977,0.065,2.931,0.8549,0.4867,-0.0247,-0.055,0.008,-0.01
1670266405.519973,-9.901,-0.096,2.948,0.8581000000000001,0.48350000000000004,-0.023200000000000002,-0.073,-0.001,-0.01
1670266405.559973,-9.903,-0.067,2.922,0.8544,0.4857,-0.023700000000000002,-0.076,0.003,-0.014
1670266405.599973,-9.853,-0.028,2.813,0.8575,0.48500000000000004,-0.025,-0.08600000000000001,0.007,-0.013000000000000001
1670266405.639973,-9.864,0.036000000000000004,2.7920000000000003,0.8567,0.4824,-0.027800000000000002,-0.077,0.003,-0.012
1670266405.679973,-9.888,-0.029,2.845,0.8561000000000001,0.48500000000000004,-0.0244,-0.073,0.006,-0.009000000000000001
1670266405.719973,-9.818,-0.04,2.825,0.8535,0.4832,-0.0273,-0.09,-0.006,-0.01
1670266405.759973,-9.843,0.041,2.869,0.8556,0.48610000000000003,-0.023700000000000002,-0.078,0.002,-0.011
1670266405.799973,-9.88,-0.048,2.838,0.8560000000000001,0.4837,-0.0239,-0.08700000000000001,0.004,-0.005
1670266405.839973,-9.828,0.002,2.892,0.8559,0.4834,-0.0258,-0.07,0.001,-0.02
1670266405.879972,-9.867,-0.065,2.911,0.8542000000000001,0.4853,-0.0262,-0.08700000000000001,-0.008,-0.01
1670266405.919972,-9.858,-0.01,2.939,0.8556,0.48600000000000004,-0.0245,-0.088,-0.006,-0.009000000000000001
1670266405.959972,-9.836,-0.041,2.878,0.8540000000000001,0.4853,-0.0269,-0.083,0.004,-0.007
1670266405.9999719,-9.859,-0.026000000000000002,2.8080000000000003,0.8537,0.4852,-0.0234,-0.079,0.009000000000000001,-0.016
1670266406.039972,-9.871,-0.065,2.879,0.8568,0.4833,-0.0244,-0.089,0.008,0.0
1670266406.079972,-9.858,-0.02,2.904,0.8551000000000001,0.48450000000000004,-0.0285,-0.095,0.009000000000000001,-0.003
1670266406.119972,-9.859,-0.046,2.8770000000000002,0.8581000000000001,0.4883,-0.0245,-0.085,0.014,-0.017
1670266406.159972,-9.918000000000001,-0.029,2.87,0.8570000000000001,0.4843,-0.0235,-0.078,0.005,-0.011
1670266406.199972,-9.889,-0.041,2.879,0.8554,0.48140000000000005,-0.0256,-0.063,0.016,-0.018000000000000002
1670266406.2399719,-9.858,-0.053,2.914,0.8602000000000001,0.48510000000000003,-0.0253,-0.073,-0.003,-0.022
1670266406.279972,-9.808,-0.058,2.872,0.8560000000000001,0.4838,-0.026000000000000002,-0.084,0.003,-0.008
1670266406.319972,-10.0,0.01,2.928,0.8538,0.4847,-0.026500000000000003,-0.066,0.014,-0.019
1670266406.359972,-9.869,-0.068,2.922,0.8586,0.48500000000000004,-0.0233,-0.082,0.005,-0.002
1670266406.399972,-9.868,-0.015,2.849,0.8562000000000001,0.4822,-0.0264,-0.081,0.009000000000000001,-0.014
1670266406.439972,-9.83,-0.048,2.841,0.8537,0.48350000000000004,-0.026600000000000002,-0.088,0.005,-0.011
1670266406.479972,-9.84,-0.004,2.91,0.8552000000000001,0.4858,-0.032,-0.085,0.0,-0.022
1670266406.519972,-9.938,-0.069,2.9170000000000003,0.8549,0.48500000000000004,-0.008700000000000001,-0.076,0.002,-0.011
1670266406.559972,-9.869,-0.07200000000000001,2.926,0.8540000000000001,0.48150000000000004,-0.008700000000000001,-0.093,0.012,-0.014
1670266406.599972,-9.869,-0.05,2.919,0.8429000000000001,0.48360000000000003,-0.016,-0.09,0.011,-0.007
1670266406.639972,-9.842,-0.05,2.8810000000000002,0.8429000000000001,0.48360000000000003,-0.016800000000000002,-0.091,0.0,-0.009000000000000001
1670266406.679972,-9.891,-0.053,2.8810000000000002,0.8531000000000001,0.4842,-0.016800000000000002,-0.07200000000000001,0.004,-0.019
1670266406.719972,-9.870000000000001,-0.047,2.902,0.8555,0.4852,0.010400000000000001,-0.077,-0.002,-0.013000000000000001
1670266406.759972,-9.843,-0.019,2.791,0.8515,0.4827,-0.016900000000000002,-0.078,0.004,-0.017
1670266406.799972,-9.855,-0.029,2.806,0.8555,0.4828,-0.0334,-0.074,0.009000000000000001,-0.015
1670266406.839972,-9.855,-0.056,2.914,0.8524,0.48550000000000004,-0.0224,-0.084,0.009000000000000001,-0.014
1670266406.879972,-9.926,-0.07,2.9370000000000003,0.8550000000000001,0.4838,-0.034300000000000004,-0.075,0.013000000000000001,-0.013000000000000001
1670266406.919971,-9.868,-0.046,2.906,0.8556,0.48450000000000004,-0.0268,-0.089,0.011,-0.004
1670266406.959971,-9.862,-0.061,2.91,0.8570000000000001,0.4852,-0.027700000000000002,-0.082,0.01,-0.012
1670266406.999971,-9.867,-0.047,2.861,0.8577,0.4864,-0.0279,-0.089,0.002,-0.015
1670266407.0399709,-9.891,-0.025,2.902,0.859,0.48600000000000004,-0.024900000000000002,-0.075,0.011,-0.014
1670266407.079971,-9.874,-0.039,2.9210000000000003,0.8564,0.4853,-0.028300000000000002,-0.069,0.006,-0.015
1670266407.119971,-9.870000000000001,-0.058,2.865,0.8572000000000001,0.48600000000000004,-0.0244,-0.077,0.011,-0.01
1670266407.159971,-9.859,-0.138,2.922,0.8571000000000001,0.4842,-0.0241,-0.095,0.003,-0.015
1670266407.199971,-9.911,0.053,2.9130000000000003,0.8501000000000001,0.48510000000000003,-0.020300000000000002,-0.067,0.027,-0.004
1670266407.239971,-9.891,-0.092,2.867,0.8542000000000001,0.4853,-0.027200000000000002,-0.08700000000000001,0.011,0.003
1670266407.279971,-9.839,-0.046,2.872,0.8420000000000001,0.4843,-0.0236,-0.075,0.014,-0.02
1670266407.319971,-9.877,-0.044,2.822,0.8575,0.4834,-0.027200000000000002,-0.084,0.003,-0.026000000000000002
1670266407.359971,-9.895,-0.065,2.869,0.8540000000000001,0.4818,-0.0175,-0.091,0.004,-0.012
1670266407.399971,-9.873,-0.047,2.868,0.8547,0.4848,-0.024900000000000002,-0.08,0.001,-0.003
1670266407.439971,-9.837,-0.079,2.806,0.8568,0.48460000000000003,-0.0246,-0.078,0.013000000000000001,-0.007
1670266407.479971,-9.889,-0.001,2.902,0.8544,0.4853,-0.0269,-0.077,0.0,-0.001
1670266407.519971,-9.870000000000001,-0.079,2.863,0.8582000000000001,0.48510000000000003,-0.0275,-0.083,0.004,-0.008
1670266407.559971,-9.891,-0.037,2.86,0.8553000000000001,0.4857,-0.0261,-0.066,0.004,-0.025
1670266407.599971,-9.915000000000001,-0.075,2.986,0.8521000000000001,0.4854,-0.0275,-0.079,-0.008,-0.011
1670266407.639971,-9.894,-0.047,2.94,0.8555,0.4837,-0.023100000000000002,-0.07100000000000001,-0.008,-0.012
1670266407.679971,-9.862,-0.054,2.898,0.8552000000000001,0.48650000000000004,-0.027200000000000002,-0.06,0.01,-0.023
1670266407.719971,-9.922,-0.05,2.9290000000000003,0.8551000000000001,0.4857,-0.0275,-0.023,0.099,0.003
1670266407.759971,-9.731,-0.025,2.742,0.8566,0.4848,-0.028200000000000003,-0.063,0.05,-0.003
1670266407.799971,-9.976,-0.025,2.958,0.8567,0.4873,-0.0264,-0.098,0.009000000000000001,-0.02
1670266407.839971,-9.956,-0.033,2.88,0.8504,0.4873,-0.0222,-0.115,-0.041,-0.02
1670266407.879971,-9.864,0.01,2.86,0.8588,0.4829,-0.0267,-0.088,0.006,-0.017
1670266407.919971,-9.85,-0.061,2.827,0.8568,0.4833,-0.0269,-0.089,-0.04,-0.019
1670266407.95997,-9.864,-0.028,2.9,0.8562000000000001,0.4843,-0.029400000000000003,-0.084,0.002,-0.014
1670266407.99997,-9.825000000000001,-0.045,2.828,0.8557,0.4864,-0.026600000000000002,-0.07200000000000001,-0.001,-0.021
1670266408.03997,-9.866,-0.117,2.79,0.8562000000000001,0.4854,-0.0216,-0.10200000000000001,0.005,0.001
1670266408.07997,-9.93,0.033,2.973,0.8592000000000001,0.48350000000000004,-0.0279,-0.074,0.02,0.002
1670266408.11997,-9.913,-0.076,2.872,0.8581000000000001,0.48410000000000003,-0.027200000000000002,-0.08,0.003,0.001
1670266408.15997,-9.816,-0.038,2.806,0.8575,0.48400000000000004,-0.028800000000000003,-0.074,-0.004,-0.008
1670266408.19997,-9.859,-0.049,2.873,0.8532000000000001,0.4848,-0.025500000000000002,-0.073,-0.007,-0.02
1670266408.23997,-9.861,-0.03,2.811,0.8558,0.4837,-0.027600000000000003,-0.085,-0.001,-0.013000000000000001
1670266408.27997,-9.919,-0.037,2.9,0.8552000000000001,0.4858,-0.024300000000000002,-0.07100000000000001,-0.001,-0.012
1670266408.31997,-9.868,-0.08700000000000001,2.836,0.8572000000000001,0.4853,-0.023700000000000002,-0.081,0.0,-0.023
1670266408.35997,-9.836,0.023,2.827,0.8589,0.4847,-0.0286,-0.075,0.009000000000000001,-0.014
1670266408.39997,-9.897,-0.08600000000000001,2.873,0.8557,0.4854,-0.0258,-0.081,-0.003,-0.006
1670266408.43997,-9.853,-0.023,2.898,0.8558,0.48560000000000003,-0.027700000000000002,-0.073,-0.004,-0.013000000000000001
1670266408.47997,-9.843,-0.049,2.861,0.8578,0.4837,-0.0261,-0.067,-0.004,-0.023
1670266408.51997,-9.861,-0.07,2.883,0.8594,0.4847,-0.0253,-0.091,-0.013000000000000001,-0.01
1670266408.55997,-9.869,-0.038,2.853,0.8553000000000001,0.4843,-0.0256,-0.075,0.002,-0.025
1670266408.59997,-9.84,-0.046,2.918,0.8540000000000001,0.4872,-0.0244,-0.078,0.012,-0.021
1670266408.63997,-9.862,-0.062,2.86,0.8550000000000001,0.4872,-0.0238,-0.081,0.014,-0.008
1670266408.67997,-9.886000000000001,-0.058,2.9410000000000003,0.8584,0.4829,-0.0222,-0.08,0.01,-0.018000000000000002
1670266408.71997,-9.833,-0.044,2.886,0.8572000000000001,0.4834,-0.025,-0.08600000000000001,0.008,-0.003
1670266408.75997,-9.891,-0.043000000000000003,2.873,0.8567,0.4868,-0.026000000000000002,-0.077,0.015,-0.008
1670266408.79997,-9.922,-0.062,2.902,0.8545,0.4842,-0.0252,-0.078,0.009000000000000001,-0.015
1670266408.83997,-9.836,-0.075,2.89,0.8560000000000001,0.4824,-0.0269,-0.083,0.006,-0.009000000000000001
1670266408.87997,-9.815,-0.096,2.83,0.8576,0.48610000000000003,-0.0238,-0.085,0.005,-0.023
1670266408.91997,-9.962,0.038,2.976,0.8584,0.4838,-0.0263,-0.07,0.016,-0.006
1670266408.95997,-9.887,-0.074,2.876,0.8564,0.4824,-0.025900000000000003,-0.085,0.017,0.004
1670266408.999969,-9.796,-0.032,2.841,0.8573000000000001,0.48650000000000004,-0.0252,-0.082,0.014,-0.004
1670266409.039969,-9.837,-0.032,2.819,0.8559,0.4842,-0.025,-0.08,0.018000000000000002,-0.026000000000000002
1670266409.079969,-9.868,-0.038,2.9130000000000003,0.8534,0.48350000000000004,-0.023,-0.089,0.004,-0.017
1670266409.119969,-9.897,-0.041,2.861,0.8567,0.4869,-0.0262,-0.07,0.006,-0.013000000000000001
1670266409.159969,-9.852,-0.098,2.878,0.8553000000000001,0.48600000000000004,-0.0228,-0.075,0.014,-0.02
1670266409.199969,-9.855,-0.023,2.894,0.8546,0.4839,-0.027700000000000002,-0.069,0.007,-0.013000000000000001
1670266409.239969,-9.867,-0.058,2.829,0.8571000000000001,0.48400000000000004,-0.025500000000000002,-0.085,0.006,-0.002
1670266409.279969,-9.896,-0.046,2.95,0.8576,0.4844,-0.0233,-0.069,0.0,-0.01
1670266409.319969,-9.855,-0.09,2.891,0.8561000000000001,0.4854,-0.027200000000000002,-0.084,0.005,-0.012
1670266409.359969,-9.904,-0.035,2.895,0.8577,0.48360000000000003,-0.0269,-0.085,-0.007,-0.015
1670266409.399969,-9.851,-0.08600000000000001,2.912,0.8579,0.48650000000000004,-0.027200000000000002,-0.089,-0.013000000000000001,-0.01
1670266409.439969,-9.888,-0.038,2.918,0.8573000000000001,0.48600000000000004,-0.0275,-0.077,0.001,-0.009000000000000001
1670266409.479969,-9.874,-0.07,2.904,0.8576,0.48160000000000003,-0.0256,-0.068,0.006,-0.021
1670266409.519969,-9.871,-0.044,2.9330000000000003,0.8580000000000001,0.4858,-0.025,-0.08600000000000001,0.002,-0.009000000000000001
1670266409.559969,-9.844,-0.025,2.848,0.8576,0.48500000000000004,-0.026000000000000002,-0.077,0.009000000000000001,-0.014
1670266409.599969,-9.891,-0.07200000000000001,2.945,0.8567,0.48450000000000004,-0.027,-0.075,0.011,-0.026000000000000002
1670266409.639969,-9.91,-0.032,2.978,0.8583000000000001,0.48600000000000004,-0.0256,-0.08,0.009000000000000001,-0.014
1670266409.679969,-9.883000000000001,-0.049,2.895,0.8566,0.48460000000000003,-0.0246,-0.065,0.0,-0.014
1670266409.719969,-9.85,-0.10400000000000001,2.852,0.8571000000000001,0.4853,-0.026000000000000002,-0.076,0.011,-0.022
1670266409.759969,-9.878,-0.007,2.958,0.8565,0.48600000000000004,-0.024200000000000003,-0.085,0.003,-0.02
1670266409.799969,-9.901,-0.067,2.9010000000000002,0.8548,0.4838,-0.0261,-0.069,0.017,-0.001
1670266409.839969,-9.839,-0.053,2.838,0.859,0.4847,-0.0264,-0.075,0.013000000000000001,-0.006
1670266409.879969,-9.924,-0.073,2.9250000000000003,0.8581000000000001,0.48350000000000004,-0.0241,-0.07200000000000001,0.018000000000000002,-0.013000000000000001
1670266409.9199688,-9.903,-0.051000000000000004,2.958,0.8570000000000001,0.4839,-0.0236,-0.083,-0.007,-0.015
1670266409.959969,-9.938,-0.042,2.928,0.8566,0.4827,-0.0252,-0.075,0.0,-0.019
1670266409.999969,-9.845,-0.093,2.876,0.8581000000000001,0.4862,-0.023200000000000002,-0.064,0.003,-0.018000000000000002
1670266410.039968,-9.868,-0.01,2.861,0.8424,0.4812,-0.0175,-0.082,0.001,-0.017
1670266410.079968,-9.885,-0.10400000000000001,2.873,0.8576,0.4824,-0.020300000000000002,-0.07200000000000001,0.011,-0.004
1670266410.119968,-9.863,-0.049,2.922,0.8543000000000001,0.4854,-0.016,-0.079,0.001,-0.009000000000000001
1670266410.159968,-9.862,-0.041,2.898,0.8545,0.48140000000000005,-0.009300000000000001,-0.07100000000000001,-0.001,-0.01
1670266410.199968,-9.856,-0.03,2.84,0.8527,0.4839,-0.013300000000000001,-0.076,-0.006,-0.008
1670266410.239968,-9.856,-0.049,2.891,0.8527,0.4859,-0.0146,-0.075,-0.006,-0.01
1670266410.279968,-9.885,-0.049,2.898,0.8576,0.4859,-0.0146,-0.079,0.003,-0.019
1670266410.319968,-9.883000000000001,-0.063,2.898,0.8557,0.4859,-0.027200000000000002,-0.077,0.016,-0.009000000000000001
1670266410.359968,-9.837,-0.023,2.8930000000000002,0.8560000000000001,0.4852,-0.0322,-0.084,0.002,-0.003
1670266410.399968,-9.9,-0.041,2.88,0.8574,0.4834,-0.031,-0.083,0.004,-0.015
1670266410.439968,-9.869,-0.06,2.903,0.8554,0.48350000000000004,-0.0524,-0.08,0.003,-0.015
1670266410.479968,-9.903,-0.094,2.93,0.8550000000000001,0.4844,-0.025500000000000002,-0.09,-0.005,-0.004
1670266410.519968,-9.861,-0.006,2.886,0.8563000000000001,0.48400000000000004,-0.0158,-0.074,0.0,-0.015
1670266410.559968,-9.848,-0.074,2.945,0.8554,0.48090000000000005,-0.0149,-0.074,-0.011,-0.009000000000000001
1670266410.599968,-9.933,-0.074,2.9050000000000002,0.8558,0.48310000000000003,-0.0245,-0.091,0.022,0.002
1670266410.639968,-9.858,0.012,3.025,0.8479,0.48360000000000003,-0.025400000000000002,-0.059000000000000004,0.033,0.001
1670266410.679968,-9.897,-0.076,2.92,0.8583000000000001,0.48410000000000003,-0.024900000000000002,-0.076,0.007,-0.005
1670266410.719968,-9.828,-0.078,2.876,0.8465,0.4792,-0.0166,-0.08600000000000001,-0.004,-0.003
1670266410.759968,-9.857,-0.046,2.959,0.859,0.48450000000000004,-0.0219,-0.094,-0.001,-0.006
1670266410.799968,-9.784,-0.031,2.855,0.8573000000000001,0.4844,-0.024800000000000003,-0.074,-0.016,-0.012
1670266410.839968,-9.909,-0.022,2.931,0.8542000000000001,0.4849,-0.0238,-0.073,-0.001,-0.022
1670266410.879968,-9.826,-0.095,2.878,0.8582000000000001,0.4834,-0.0253,-0.077,0.002,-0.022
1670266410.919968,-9.84,0.001,2.915,0.8540000000000001,0.4857,-0.021,-0.08600000000000001,-0.003,-0.002
1670266410.9599679,-9.879,-0.07,2.911,0.8543000000000001,0.4864,-0.025400000000000002,-0.089,0.0,-0.01
1670266410.999968,-9.866,-0.056,2.983,0.8542000000000001,0.4837,-0.023200000000000002,-0.07,0.009000000000000001,-0.018000000000000002
1670266411.039968,-9.855,-0.055,2.892,0.8551000000000001,0.4848,-0.0234,-0.081,-0.002,-0.005
1670266411.079967,-9.908,-0.07,2.97,0.8587,0.4837,-0.024300000000000002,-0.085,0.012,-0.005
1670266411.119967,-9.845,-0.031,2.873,0.8575,0.4854,-0.0238,-0.081,0.012,-0.02
1670266411.159967,-9.852,-0.056,2.9090000000000003,0.8553000000000001,0.4868,-0.025500000000000002,-0.076,0.01,-0.016
1670266411.199967,-9.904,-0.067,2.923,0.8572000000000001,0.4811,-0.0274,-0.1,-0.004,-0.005
1670266411.239967,-9.848,-0.056,2.922,0.8558,0.4848,-0.026000000000000002,-0.10200000000000001,-0.004,-0.004
1670266411.279967,-9.868,-0.054,2.888,0.8437,0.48350000000000004,-0.0246,-0.08,0.004,-0.012
1670266411.319967,-9.867,-0.047,2.952,0.8550000000000001,0.4854,-0.025500000000000002,-0.076,0.01,-0.012
1670266411.359967,-9.88,-0.044,2.947,0.8542000000000001,0.48210000000000003,-0.025500000000000002,-0.069,0.015,-0.017
1670266411.399967,-9.816,-0.041,2.907,0.8578,0.48700000000000004,-0.0258,-0.062,0.011,-0.02
1670266411.439967,-9.83,-0.134,2.872,0.8574,0.48460000000000003,-0.0253,-0.081,0.008,-0.016
1670266411.479967,-9.952,0.03,2.959,0.8551000000000001,0.4833,-0.0238,-0.077,0.025,-0.006
1670266411.519967,-9.870000000000001,-0.08700000000000001,2.957,0.8549,0.4838,-0.0263,-0.082,0.017,-0.003
1670266411.559967,-9.865,-0.04,2.855,0.8545,0.4853,-0.0247,-0.096,0.008,-0.008
1670266411.599967,-9.837,-0.04,2.874,0.8529,0.4837,-0.0258,-0.10200000000000001,0.002,-0.001
1670266411.639967,-9.84,-0.029,2.828,0.8589,0.4828,-0.0236,-0.08700000000000001,0.001,-0.026000000000000002
1670266411.679967,-9.932,-0.029,2.912,0.8563000000000001,0.48360000000000003,-0.026500000000000003,-0.081,0.01,-0.008
1670266411.719967,-9.838000000000001,-0.117,2.946,0.8536,0.4844,-0.0244,-0.10200000000000001,-0.006,-0.016
1670266411.7599669,-9.864,-0.032,2.884,0.8573000000000001,0.48560000000000003,-0.0241,-0.089,0.001,-0.004
1670266411.799967,-9.906,-0.092,2.977,0.8540000000000001,0.48600000000000004,-0.0258,-0.083,0.004,-0.014
1670266411.839967,-9.864,-0.04,2.872,0.8564,0.4863,-0.0261,-0.066,0.01,-0.016
1670266411.879967,-9.888,-0.061,2.9410000000000003,0.8563000000000001,0.4864,-0.026600000000000002,-0.074,0.0,-0.009000000000000001
1670266411.919967,-9.813,-0.023,2.8770000000000002,0.8565,0.48560000000000003,-0.025,-0.069,0.004,-0.011
1670266411.959967,-9.882,-0.081,2.91,0.8560000000000001,0.4824,-0.025900000000000003,-0.074,0.0,-0.009000000000000001
1670266411.9999669,-9.863,-0.02,2.871,0.8566,0.4853,-0.0252,-0.07100000000000001,0.003,-0.015
1670266412.039967,-9.868,-0.056,2.882,0.8548,0.4854,-0.0262,-0.07200000000000001,0.008,-0.015
1670266412.079967,-9.882,-0.042,2.88,0.8573000000000001,0.4848,-0.0257,-0.082,-0.001,-0.013000000000000001
1670266412.119967,-9.871,-0.082,2.9370000000000003,0.8503000000000001,0.48400000000000004,-0.0269,-0.085,-0.015,-0.003
1670266412.159967,-9.915000000000001,-0.065,2.96,0.8570000000000001,0.48150000000000004,-0.0256,-0.08,-0.009000000000000001,-0.008
1670266412.199966,-9.916,0.0,2.981,0.8550000000000001,0.48350000000000004,-0.024200000000000003,-0.06,-0.005,-0.011
1670266412.239966,-9.853,-0.078,2.962,0.8565,0.48510000000000003,-0.024300000000000002,-0.063,-0.014,-0.023
1670266412.279966,-9.915000000000001,-0.08700000000000001,2.9210000000000003,0.8536,0.48400000000000004,-0.0229,-0.084,0.0,-0.019
1670266412.319966,-9.799,-0.026000000000000002,2.9410000000000003,0.8550000000000001,0.48150000000000004,-0.0229,-0.08,-0.002,-0.021
1670266412.359966,-9.875,-0.025,2.849,0.8561000000000001,0.48300000000000004,-0.0219,-0.058,0.005,-0.009000000000000001
1670266412.399966,-9.879,-0.081,2.94,0.8565,0.4868,-0.0253,-0.092,0.004,-0.014
1670266412.439966,-9.852,-0.029,2.975,0.8558,0.48810000000000003,-0.025,-0.073,0.001,-0.017
1670266412.479966,-9.837,-0.096,2.9210000000000003,0.8554,0.48610000000000003,-0.0211,-0.091,-0.001,-0.007
1670266412.519966,-9.824,-0.026000000000000002,2.9370000000000003,0.8539,0.48510000000000003,-0.024,-0.08700000000000001,0.0,-0.005
1670266412.5599658,-9.878,-0.058,2.891,0.8554,0.48350000000000004,-0.0241,-0.07200000000000001,0.007,-0.01
1670266412.599966,-9.861,-0.061,2.954,0.8564,0.4854,-0.024,-0.08,0.014,-0.018000000000000002
1670266412.639966,-9.888,-0.10300000000000001,2.9330000000000003,0.8560000000000001,0.4837,-0.0213,-0.10400000000000001,0.0,0.001
1670266412.679966,-9.806000000000001,0.006,2.945,0.8558,0.48200000000000004,-0.0245,-0.079,0.003,-0.021
1670266412.719966,-9.868,-0.058,2.948,0.8568,0.48500000000000004,-0.0221,-0.069,-0.002,-0.015
1670266412.759966,-9.807,-0.037,2.915,0.8490000000000001,0.4823,-0.0233,-0.067,-0.003,-0.02
1670266412.7999659,-9.795,-0.054,2.977,0.8537,0.4857,-0.020900000000000002,-0.085,-0.005,-0.005
1670266412.839966,-9.879,-0.06,2.995,0.8555,0.4862,-0.0221,-0.081,0.013000000000000001,-0.011
1670266412.879966,-9.865,-0.065,2.966,0.8561000000000001,0.4859,-0.023200000000000002,-0.097,0.008,-0.013000000000000001
1670266412.919966,-9.885,-0.055,3.027,0.8558,0.4844,-0.022000000000000002,-0.08600000000000001,0.025,-0.015
1670266412.959966,-9.822000000000001,-0.07100000000000001,2.974,0.8566,0.4864,-0.0222,-0.084,0.022,-0.022
1670266412.999966,-9.825000000000001,-0.061,2.912,0.8568,0.48450000000000004,-0.0261,-0.074,0.021,-0.013000000000000001
1670266413.0399659,-9.842,-0.063,2.894,0.8581000000000001,0.48260000000000003,-0.0257,-0.077,0.008,-0.01
1670266413.079966,-9.935,-0.047,2.967,0.8552000000000001,0.4862,-0.024300000000000002,-0.065,0.031,-0.009000000000000001
1670266413.119966,-9.797,-0.063,2.8970000000000002,0.8543000000000001,0.48400000000000004,-0.0264,-0.069,0.031,-0.018000000000000002
1670266413.159966,-9.916,-0.004,2.9010000000000002,0.8557,0.48600000000000004,-0.024200000000000003,-0.051000000000000004,0.049,-0.03
1670266413.199966,-9.919,-0.098,2.8970000000000002,0.8573000000000001,0.4832,-0.026600000000000002,-0.077,0.016,-0.004
1670266413.239965,-9.853,-0.043000000000000003,2.915,0.8562000000000001,0.48400000000000004,-0.0275,-0.082,0.01,-0.002
1670266413.279965,-9.849,0.0,2.883,0.8557,0.4857,-0.025500000000000002,-0.056,0.005,-0.021
1670266413.319965,-9.824,-0.082,2.868,0.8580000000000001,0.4844,-0.026600000000000002,-0.08,0.004,-0.033
1670266413.3599648,-9.946,-0.04,2.809,0.8578,0.4843,-0.0234,-0.082,0.012,0.004
1670266413.399965,-9.867,0.001,2.9250000000000003,0.8566,0.48550000000000004,-0.026600000000000002,-0.052000000000000005,0.037,-0.017
1670266413.439965,-9.88,-0.098,2.872,0.8577,0.48350000000000004,-0.0216,-0.019,0.044,-0.007
1670266413.479965,-9.950000000000001,-0.046,2.868,0.8496,0.4842,-0.0213,-0.081,0.017,-0.015
1670266413.519965,-9.815,-0.024,2.727,0.8567,0.48400000000000004,-0.0256,-0.025,0.034,-0.01
1670266413.559965,-9.983,-0.084,2.957,0.8536,0.4824,-0.027700000000000002,-0.09,-0.023,-0.029
1670266413.5999649,-9.854000000000001,-0.053,2.859,0.8556,0.4842,-0.025500000000000002,-0.11800000000000001,-0.014,-0.01
1670266413.639965,-9.859,-0.046,2.857,0.859,0.48460000000000003,-0.0274,-0.097,0.006,-0.015
1670266413.679965,-9.892,-0.028,2.865,0.8559,0.4842,-0.0264,-0.081,0.009000000000000001,-0.027
1670266413.719965,-9.888,-0.07100000000000001,2.864,0.8588,0.4837,-0.028200000000000003,-0.085,0.022,-0.017
1670266413.759965,-9.944,-0.043000000000000003,2.888,0.8565,0.4837,-0.0234,-0.1,-0.002,-0.002
1670266413.799965,-9.919,-0.032,2.912,0.8575,0.48510000000000003,-0.028,-0.08600000000000001,0.01,-0.006
1670266413.8399649,-9.846,-0.02,2.7960000000000003,0.8597,0.4852,-0.0424,-0.069,0.009000000000000001,-0.026000000000000002
1670266413.879965,-9.846,-0.062,2.886,0.8597,0.4872,-0.0143,-0.082,0.0,-0.011
1670266413.919965,-9.923,-0.062,2.859,0.8570000000000001,0.4872,-0.0346,-0.07200000000000001,0.004,-0.011
1670266413.959965,-9.848,-0.033,2.9210000000000003,0.8556,0.48500000000000004,-0.037200000000000004,-0.081,0.01,-0.012
1670266413.999965,-9.929,-0.092,2.9210000000000003,0.8460000000000001,0.4853,-0.037200000000000004,-0.069,0.006,-0.006
1670266414.039965,-9.946,0.02,2.87,0.8573000000000001,0.48500000000000004,-0.0056,-0.076,0.008,0.001
1670266414.0799649,-9.922,-0.098,2.9,0.8476,0.4806,-0.0154,-0.085,0.004,-0.011
1670266414.119965,-9.861,-0.021,2.794,0.8512000000000001,0.48510000000000003,-0.020900000000000002,-0.08600000000000001,0.002,-0.02
1670266414.159965,-9.876,-0.031,2.85,0.8520000000000001,0.48140000000000005,-0.0244,-0.082,-0.008,-0.014
1670266414.199965,-9.9,-0.018000000000000002,2.906,0.8542000000000001,0.4833,-0.013900000000000001,-0.07,-0.003,-0.012
1670266414.239965,-9.919,-0.05,2.892,0.8570000000000001,0.4829,-0.0263,-0.077,0.0,-0.016
1670266414.279964,-9.88,-0.049,2.825,0.8566,0.4839,-0.0251,-0.077,-0.002,-0.009000000000000001
1670266414.319964,-9.889,-0.029,2.884,0.8570000000000001,0.48400000000000004,-0.024800000000000003,-0.08600000000000001,-0.011,-0.004
1670266414.359964,-9.846,-0.05,2.856,0.8580000000000001,0.4848,-0.027100000000000003,-0.068,-0.012,-0.02
1670266414.3999639,-9.891,-0.045,2.963,0.8566,0.48450000000000004,-0.0238,-0.059000000000000004,-0.007,-0.02
1670266414.439964,-9.906,-0.049,2.8770000000000002,0.8542000000000001,0.4863,-0.0252,-0.075,-0.003,-0.022
1670266414.479964,-9.843,-0.046,2.938,0.8573000000000001,0.4829,-0.0222,-0.068,-0.015,-0.015
1670266414.519964,-9.843,-0.05,2.922,0.8549,0.48500000000000004,-0.0252,-0.068,-0.006,-0.015
1670266414.559964,-9.863,-0.052000000000000005,2.903,0.8578,0.4832,-0.023,-0.075,0.006,-0.012
1670266414.599964,-9.849,-0.045,2.91,0.8571000000000001,0.48400000000000004,-0.0241,-0.08700000000000001,0.007,0.0
1670266414.6399639,-9.851,-0.036000000000000004,2.8850000000000002,0.8493,0.48500000000000004,-0.0239,-0.076,0.013000000000000001,-0.005
1670266414.679964,-9.818,-0.059000000000000004,2.945,0.8550000000000001,0.4842,-0.0234,-0.07100000000000001,0.015,0.015
1670266414.719964,-9.892,-0.011,2.9410000000000003,0.8502000000000001,0.48090000000000005,-0.0164,-0.068,-0.012,0.01
1670266414.759964,-9.941,-0.008,2.8850000000000002,0.8598,0.48450000000000004,-0.023200000000000002,-0.064,0.007,-0.026000000000000002
1670266414.799964,-9.859,-0.019,2.93,0.8570000000000001,0.4853,-0.0217,-0.068,0.002,-0.027
1670266414.839964,-9.932,-0.07,2.888,0.8607,0.48210000000000003,-0.024200000000000003,-0.09,0.008,-0.021
1670266414.8799639,-9.888,0.028,3.005,0.8595,0.48700000000000004,-0.0234,-0.066,0.019,-0.022
1670266414.919964,-9.916,-0.046,2.9130000000000003,0.8541000000000001,0.4833,-0.0238,-0.08600000000000001,0.008,-0.017
1670266414.959964,-9.842,-0.053,2.83,0.8574,0.4834,-0.024800000000000003,-0.084,0.013000000000000001,-0.012
1670266414.999964,-9.852,-0.013000000000000001,2.9290000000000003,0.8558,0.4832,-0.024200000000000003,-0.082,0.011,-0.016
1670266415.039964,-9.88,-0.032,2.882,0.8575,0.4843,-0.0247,-0.08,0.01,-0.014
1670266415.079964,-9.893,-0.023,2.958,0.8589,0.4829,-0.0257,-0.073,0.004,-0.008
1670266415.119964,-9.874,-0.07100000000000001,2.829,0.8564,0.4829,-0.0228,-0.091,0.0,-0.016
1670266415.159964,-9.867,0.024,2.888,0.8569,0.4857,-0.0251,-0.08,0.005,-0.016
1670266415.199964,-9.876,-0.041,2.9010000000000002,0.8572000000000001,0.4824,-0.0236,-0.089,0.01,-0.01
1670266415.239964,-9.828,-0.017,2.906,0.8553000000000001,0.48250000000000004,-0.0247,-0.082,-0.004,-0.012
1670266415.279964,-9.852,-0.025,2.887,0.8586,0.48450000000000004,-0.0241,-0.068,-0.005,-0.02
1670266415.319963,-9.877,-0.021,2.979,0.8556,0.4849,-0.0239,-0.069,0.001,-0.017
1670266415.359963,-9.831,-0.047,2.934,0.8580000000000001,0.4847,-0.0251,-0.082,0.006,-0.009000000000000001
1670266415.399963,-9.85,-0.032,2.87,0.8574,0.48510000000000003,-0.025500000000000002,-0.083,0.012,-0.013000000000000001
1670266415.4399629,-9.876,-0.034,2.844,0.8550000000000001,0.4842,-0.0246,-0.091,0.022,-0.006
1670266415.479963,-9.899000000000001,-0.029,2.949,0.8583000000000001,0.4829,-0.025500000000000002,-0.075,0.014,-0.014
1670266415.519963,-9.858,-0.046,2.888,0.8534,0.4832,-0.021500000000000002,-0.076,0.003,-0.005
1670266415.559963,-9.844,-0.013000000000000001,2.799,0.8586,0.4853,-0.0241,-0.075,0.012,-0.013000000000000001
1670266415.599963,-9.847,-0.022,2.957,0.8578,0.48160000000000003,-0.0228,-0.07200000000000001,0.013000000000000001,-0.013000000000000001
1670266415.639963,-9.77,-0.06,2.8120000000000003,0.8595,0.4833,-0.023700000000000002,-0.082,0.008,-0.014
1670266415.6799629,-9.950000000000001,0.03,2.89,0.8571000000000001,0.48450000000000004,-0.0267,-0.065,0.028,-0.003
1670266415.719963,-9.909,-0.06,2.8810000000000002,0.8554,0.4834,-0.023,-0.081,0.008,0.001
1670266415.759963,-9.835,0.004,2.798,0.8594,0.4848,-0.0263,-0.083,0.014,-0.017
1670266415.799963,-9.811,0.003,2.831,0.8562000000000001,0.4824,-0.0247,-0.076,0.005,-0.014
1670266415.839963,-9.86,0.018000000000000002,2.8890000000000002,0.8565,0.4837,-0.0274,-0.08700000000000001,0.003,-0.007
1670266415.879963,-9.933,-0.016,2.8850000000000002,0.8581000000000001,0.4844,-0.0275,-0.075,0.014,-0.004
1670266415.919963,-9.864,-0.065,2.916,0.8592000000000001,0.48310000000000003,-0.024300000000000002,-0.085,0.004,-0.017
1670266415.959963,-9.86,-0.029,2.88,0.8587,0.4844,-0.0258,-0.088,0.01,0.0
1670266415.999963,-9.9,-0.016,2.849,0.8575,0.4828,-0.0268,-0.074,0.013000000000000001,-0.009000000000000001
1670266416.039963,-9.859,-0.017,2.856,0.8565,0.4833,-0.029,-0.06,0.011,-0.024
1670266416.079963,-9.914,-0.029,2.84,0.8581000000000001,0.48090000000000005,-0.0252,-0.08,0.002,-0.013000000000000001
1670266416.119963,-9.873,-0.007,2.86,0.8589,0.4854,-0.027600000000000003,-0.081,0.0,-0.008
1670266416.159963,-9.868,-0.017,2.832,0.8583000000000001,0.4822,-0.0279,-0.081,0.001,-0.014
1670266416.199963,-9.868,-0.016,2.849,0.8528,0.48190000000000005,-0.0261,-0.075,0.009000000000000001,-0.021
1670266416.239963,-9.877,-0.035,2.865,0.8583000000000001,0.4824,-0.027600000000000003,-0.081,0.009000000000000001,-0.006
1670266416.279963,-9.912,-0.055,2.873,0.8569,0.4843,-0.026000000000000002,-0.097,0.001,-0.011
1670266416.319963,-9.886000000000001,0.01,2.876,0.8591000000000001,0.4837,-0.0267,-0.07100000000000001,0.008,-0.019
1670266416.359962,-9.875,-0.02,2.965,0.8571000000000001,0.4854,-0.024800000000000003,-0.082,0.009000000000000001,-0.007
1670266416.399962,-9.883000000000001,0.017,2.902,0.8567,0.48360000000000003,-0.0239,-0.069,0.017,-0.014
1670266416.439962,-9.835,-0.067,2.8850000000000002,0.8587,0.4843,-0.0258,-0.073,0.018000000000000002,-0.018000000000000002
1670266416.4799619,-9.9,0.07,2.906,0.8578,0.4829,-0.0267,-0.065,0.008,0.004
1670266416.519962,-9.935,-0.052000000000000005,2.9210000000000003,0.8573000000000001,0.4824,-0.0244,-0.055,0.014,0.004
1670266416.559962,-9.881,-0.002,2.872,0.8602000000000001,0.4828,-0.027,-0.067,0.016,-0.007
1670266416.599962,-9.874,0.0,2.837,0.8589,0.4818,-0.027200000000000002,-0.082,0.006,-0.009000000000000001
1670266416.639962,-9.828,0.021,2.755,0.8588,0.48360000000000003,-0.024200000000000003,-0.077,0.0,-0.015
1670266416.679962,-9.941,0.007,2.838,0.8587,0.4813,-0.0235,-0.079,0.013000000000000001,-0.018000000000000002
1670266416.719962,-9.89,-0.059000000000000004,2.857,0.8573000000000001,0.4829,-0.0252,-0.085,-0.006,-0.016
1670266416.759962,-9.876,0.064,2.783,0.8604,0.4839,-0.0252,-0.07200000000000001,0.021,-0.014
1670266416.799962,-9.898,0.005,2.786,0.8569,0.4817,-0.0263,-0.088,-0.005,-0.003
1670266416.839962,-9.854000000000001,-0.012,2.88,0.8595,0.4837,-0.0257,-0.08,-0.001,-0.01
1670266416.879962,-9.883000000000001,-0.005,2.907,0.8526,0.4823,-0.0264,-0.08,-0.01,-0.014
1670266416.919962,-9.879,-0.003,2.861,0.8566,0.4837,-0.0239,-0.079,-0.013000000000000001,-0.019
1670266416.959962,-9.864,-0.001,2.824,0.8571000000000001,0.4824,-0.023200000000000002,-0.064,-0.011,-0.032
1670266416.999962,-9.831,-0.006,2.81,0.8575,0.4827,-0.0264,-0.07,0.005,-0.033
1670266417.039962,-9.876,-0.017,2.945,0.8555,0.48360000000000003,-0.0247,-0.085,-0.002,-0.014
1670266417.079962,-9.844,-0.032,2.873,0.8538,0.4817,-0.0227,-0.092,-0.001,-0.012
1670266417.119962,-9.855,-0.007,2.879,0.8593000000000001,0.48510000000000003,-0.0258,-0.076,0.0,-0.011
1670266417.159962,-9.871,-0.016,2.887,0.8582000000000001,0.4844,-0.025,-0.075,0.004,-0.016
1670266417.199962,-9.867,-0.008,2.919,0.8571000000000001,0.48450000000000004,-0.024900000000000002,-0.07100000000000001,-0.008,-0.013000000000000001
1670266417.239962,-9.846,-0.028,2.9410000000000003,0.8585,0.4828,-0.0219,-0.065,-0.003,-0.024
1670266417.279962,-9.843,-0.082,2.848,0.8567,0.48310000000000003,-0.025,-0.076,0.006,-0.017
1670266417.319962,-9.942,0.079,2.957,0.8560000000000001,0.48460000000000003,-0.026000000000000002,-0.088,0.0,-0.008
1670266417.359962,-9.913,-0.085,2.9330000000000003,0.8603000000000001,0.4818,-0.027600000000000003,-0.073,0.006,0.005
1670266417.399961,-9.829,-0.034,2.8810000000000002,0.8512000000000001,0.4834,-0.027600000000000003,-0.09,0.003,-0.004
1670266417.439961,-9.809000000000001,-0.019,2.875,0.8562000000000001,0.4853,-0.0017000000000000001,-0.081,0.005,-0.015
1670266417.479961,-9.809000000000001,-0.013000000000000001,2.896,0.8484,0.48160000000000003,-0.042100000000000005,-0.083,-0.002,-0.02
1670266417.5199609,-9.886000000000001,-0.013000000000000001,2.852,0.8484,0.48160000000000003,-0.033,-0.076,0.0,-0.011
1670266417.559961,-9.897,0.0,2.852,0.8570000000000001,0.48350000000000004,-0.033,-0.09,-0.002,-0.013000000000000001
1670266417.599961,-9.873,-0.079,2.955,0.8578,0.47840000000000005,-0.027700000000000002,-0.069,0.001,-0.007
1670266417.639961,-9.815,0.052000000000000005,2.884,0.8601000000000001,0.48510000000000003,-0.0228,-0.076,-0.003,-0.009000000000000001
1670266417.679961,-9.836,-0.036000000000000004,2.822,0.8584,0.4811,-0.0246,-0.073,-0.005,-0.013000000000000001
1670266417.719961,-9.881,0.004,2.9330000000000003,0.8536,0.4849,-0.0187,-0.07,-0.002,-0.014
1670266417.759961,-9.865,-0.012,2.935,0.8541000000000001,0.48650000000000004,-0.023100000000000002,-0.065,-0.003,-0.014
1670266417.799961,-9.805,-0.002,2.915,0.8548,0.48500000000000004,-0.024800000000000003,-0.07200000000000001,-0.007,-0.02
1670266417.839961,-9.787,0.001,2.816,0.8585,0.4813,-0.0247,-0.073,0.009000000000000001,-0.02
1670266417.799961,-9.876,-0.007,2.9,0.8557,0.48450000000000004,-0.0247,-0.093,-0.001,-0.008
1670266417.839961,-9.91,-0.04,3.0140000000000002,0.8544,0.48410000000000003,-0.023100000000000002,-0.091,0.008,-0.013000000000000001
1670266417.879961,-9.869,-0.04,2.936,0.8579,0.48260000000000003,-0.0244,-0.078,0.015,-0.015
1670266417.919961,-9.852,-0.022,2.942,0.8584,0.4848,-0.0238,-0.076,0.003,-0.007
1670266417.959961,-9.845,-0.019,2.87,0.8569,0.4853,-0.0233,-0.07200000000000001,0.014,-0.021
1670266417.999961,-9.842,-0.023,2.9330000000000003,0.8551000000000001,0.48560000000000003,-0.024800000000000003,-0.076,0.021,-0.021
1670266418.039961,-9.793000000000001,-0.016,2.966,0.8575,0.4834,-0.0251,-0.075,0.003,-0.011
1670266418.079961,-9.964,-0.005,2.964,0.8542000000000001,0.4828,-0.0227,-0.08,0.007,-0.001
1670266418.119961,-9.84,-0.073,2.87,0.8560000000000001,0.4823,-0.0245,-0.093,0.006,-0.012
1670266418.159961,-9.789,0.001,2.858,0.8458,0.4796,-0.0148,-0.091,0.014,-0.008
1670266418.199961,-9.901,-0.028,2.9210000000000003,0.8561000000000001,0.4843,-0.019200000000000002,-0.085,0.019,-0.016
1670266418.239961,-9.871,0.004,2.852,0.8615,0.4839,-0.0267,-0.077,0.025,-0.004
1670266418.279961,-9.898,-0.068,2.875,0.8567,0.48510000000000003,-0.0256,-0.089,0.004,-0.021
1670266418.319961,-9.864,0.029,2.86,0.8564,0.48710000000000003,-0.024800000000000003,-0.076,0.007,-0.006
1670266418.359961,-9.893,-0.032,2.836,0.8566,0.48560000000000003,-0.027100000000000003,-0.078,0.0,-0.011
1670266418.399961,-9.856,0.0,2.927,0.8581000000000001,0.4833,-0.0252,-0.076,0.008,-0.015
1670266418.43996,-9.851,-0.016,2.9050000000000002,0.8576,0.48210000000000003,-0.026500000000000003,-0.08,-0.005,-0.012
1670266418.47996,-9.852,-0.017,2.8890000000000002,0.8548,0.4844,-0.0252,-0.091,-0.002,-0.013000000000000001
1670266418.51996,-9.853,-0.019,2.876,0.8580000000000001,0.48300000000000004,-0.0258,-0.078,0.002,-0.016
1670266418.55996,-9.876,-0.061,2.879,0.8577,0.48450000000000004,-0.024200000000000003,-0.07,0.018000000000000002,-0.019
1670266418.59996,-9.893,-0.034,2.922,0.8554,0.4832,-0.0245,-0.081,0.002,-0.009000000000000001
1670266418.63996,-9.879,-0.052000000000000005,2.907,0.8503000000000001,0.48450000000000004,-0.0223,-0.08600000000000001,0.006,-0.006
1670266418.67996,-9.879,-0.032,2.9090000000000003,0.8586,0.48300000000000004,-0.0261,-0.073,-0.001,-0.008
1670266418.71996,-9.874,-0.036000000000000004,2.934,0.8528,0.4847,-0.0244,-0.069,0.005,-0.011
1670266418.75996,-9.806000000000001,-0.025,2.874,0.8553000000000001,0.4834,-0.0275,-0.073,-0.001,-0.018000000000000002
1670266418.79996,-9.828,-0.079,2.842,0.8565,0.4843,-0.0253,-0.08,0.008,-0.015
1670266418.83996,-9.944,0.052000000000000005,2.882,0.8509,0.4848,-0.024900000000000002,-0.06,0.016,-0.012
1670266418.87996,-9.904,-0.061,2.922,0.8515,0.4812,-0.022500000000000003,-0.066,0.005,-0.004
1670266418.91996,-9.841000000000001,-0.022,2.845,0.8562000000000001,0.4842,-0.024,-0.079,0.007,-0.014
1670266418.95996,-9.843,-0.019,2.84,0.8544,0.4839,-0.025,-0.093,0.003,-0.029
1670266418.99996,-9.833,-0.005,2.898,0.8564,0.48260000000000003,-0.0263,-0.093,-0.002,-0.015
1670266419.03996,-9.89,0.002,2.894,0.8562000000000001,0.48410000000000003,-0.0219,-0.055,0.024,-0.028
1670266419.07996,-9.871,-0.107,2.864,0.8539,0.48210000000000003,-0.027800000000000002,-0.07200000000000001,0.033,-0.005
1670266419.11996,-9.8,0.039,2.86,0.8578,0.4828,-0.0252,-0.056,0.018000000000000002,0.001
1670266419.15996,-9.986,-0.02,2.938,0.8571000000000001,0.4839,-0.0247,-0.06,0.041,-0.006
1670266419.19996,-9.879,-0.034,2.841,0.8548,0.48310000000000003,-0.026600000000000002,-0.062,0.015,-0.012
1670266419.23996,-9.846,-0.003,2.872,0.8563000000000001,0.48150000000000004,-0.0256,-0.073,0.014,-0.011
1670266419.27996,-9.917,-0.001,2.858,0.8589,0.4811,-0.024800000000000003,-0.078,0.002,-0.023
1670266419.31996,-9.944,-0.077,2.902,0.8558,0.4824,-0.025400000000000002,-0.077,0.014,-0.019
1670266419.35996,-9.93,-0.031,2.825,0.8560000000000001,0.4839,-0.027100000000000003,-0.073,0.012,-0.021
1670266419.39996,-9.922,0.0,2.818,0.8561000000000001,0.4853,-0.025500000000000002,-0.098,-0.019,-0.013000000000000001
1670266419.43996,-9.921,-0.011,2.864,0.8559,0.48260000000000003,-0.0256,-0.075,0.018000000000000002,0.0
1670266419.479959,-9.897,-0.017,2.851,0.8550000000000001,0.48400000000000004,-0.0267,-0.083,-0.01,-0.006
1670266419.519959,-9.919,-0.003,2.895,0.8537,0.4837,-0.0261,-0.073,0.02,-0.007
1670266419.559959,-9.843,-0.023,2.845,0.8555,0.4842,-0.023,-0.07200000000000001,-0.003,-0.014
1670266419.599959,-9.961,-0.039,2.919,0.8551000000000001,0.4828,-0.0286,-0.083,0.013000000000000001,-0.023
1670266419.639959,-9.732,-0.043000000000000003,2.824,0.8589,0.4827,-0.0281,-0.1,0.016,-0.011
1670266419.679959,-10.047,-0.022,2.918,0.8581000000000001,0.48360000000000003,-0.027,-0.084,0.002,-0.004
1670266419.719959,-9.846,0.007,2.769,0.8593000000000001,0.48260000000000003,-0.0286,-0.109,-0.015,-0.012
1670266419.759959,-9.825000000000001,-0.02,2.859,0.8579,0.4848,-0.026600000000000002,-0.098,0.001,-0.022
1670266419.799959,-9.792,-0.07,2.7880000000000003,0.8602000000000001,0.48360000000000003,-0.0261,-0.154,-0.059000000000000004,0.0
1670266419.839959,-9.971,0.081,2.923,0.8560000000000001,0.48500000000000004,-0.0257,-0.08700000000000001,-0.041,-0.035
1670266419.879959,-9.912,-0.07,2.922,0.8589,0.48450000000000004,-0.0262,-0.085,-0.016,-0.03
1670266419.919959,-9.742,-0.17500000000000002,2.87,0.8551000000000001,0.4844,-0.0258,-0.17200000000000001,-0.003,0.004
1670266419.959959,-9.891,0.052000000000000005,2.867,0.8564,0.48450000000000004,-0.0262,-0.091,-0.02,-0.008
1670266419.999959,-9.907,-0.013000000000000001,2.918,0.8574,0.4839,-0.0261,-0.068,0.001,-0.025
1670266420.039959,-9.792,-0.124,2.961,0.8570000000000001,0.4864,-0.0239,-0.07200000000000001,0.006,-0.012
1670266420.079959,-9.861,-0.043000000000000003,2.943,0.8559,0.4853,-0.0224,-0.076,0.002,0.0
1670266420.119959,-9.857,-0.053,2.983,0.8598,0.4823,-0.025,-0.078,0.0,-0.019
1670266420.159959,-9.866,-0.058,2.906,0.8546,0.4859,-0.024900000000000002,-0.069,0.01,-0.006
1670266420.199959,-9.868,-0.052000000000000005,2.8810000000000002,0.8512000000000001,0.48310000000000003,-0.025900000000000003,-0.046,0.009000000000000001,-0.003
1670266420.239959,-9.885,-0.061,2.878,0.8559,0.4829,-0.023200000000000002,-0.07,0.01,-0.005
1670266420.279959,-9.870000000000001,-0.056,2.904,0.8572000000000001,0.4842,-0.0263,-0.073,0.007,-0.006
1670266420.319959,-9.868,-0.029,2.955,0.8550000000000001,0.48450000000000004,-0.025900000000000003,-0.07100000000000001,0.025,-0.005
1670266420.359959,-9.815,-0.025,2.87,0.8576,0.48410000000000003,-0.0263,-0.054,0.029,-0.018000000000000002
1670266420.3999588,-9.888,-0.084,2.876,0.8589,0.48400000000000004,-0.0263,-0.07100000000000001,0.025,-0.003
1670266420.439959,-9.861,0.066,2.855,0.8568,0.48350000000000004,-0.0246,-0.067,0.014,-0.014
1670266420.479959,-9.93,-0.056,2.926,0.8565,0.4843,-0.0227,-0.065,0.018000000000000002,0.002
1670266420.519958,-9.865,-0.034,2.8810000000000002,0.8558,0.4817,-0.0222,-0.083,0.005,0.0
1670266420.559958,-9.842,0.033,2.858,0.8576,0.48560000000000003,-0.027700000000000002,-0.076,0.016,-0.005
1670266420.599958,-9.856,-0.032,2.93,0.8520000000000001,0.4807,-0.028,-0.062,0.009000000000000001,-0.021
1670266420.639958,-9.877,-0.01,2.892,0.8594,0.4822,-0.0292,-0.07100000000000001,0.014,-0.02
1670266420.679958,-9.856,-0.076,2.841,0.8562000000000001,0.4829,-0.0253,-0.08,0.017,-0.013000000000000001
1670266420.719958,-9.853,0.067,2.8770000000000002,0.8550000000000001,0.4852,-0.0281,-0.077,0.022,-0.019
1670266420.759958,-9.887,-0.029,2.916,0.8573000000000001,0.4848,-0.025500000000000002,-0.089,0.015,0.005
1670266420.799958,-9.9,-0.004,2.869,0.8553000000000001,0.4829,-0.0244,-0.074,0.01,-0.014
1670266420.839958,-9.886000000000001,-0.065,2.887,0.8432000000000001,0.47890000000000005,-0.0117,-0.06,0.013000000000000001,-0.015
1670266420.879958,-9.888,-0.032,2.878,0.8485,0.4853,-0.019200000000000002,-0.092,-0.001,-0.003
1670266420.919958,-9.925,-0.013000000000000001,2.946,0.8551000000000001,0.4818,-0.0349,-0.092,0.005,-0.005
1670266420.959958,-9.925,-0.029,2.876,0.8551000000000001,0.48190000000000005,-0.0048000000000000004,-0.078,0.012,-0.022
1670266420.999958,-9.9,-0.029,2.8970000000000002,0.8544,0.48190000000000005,-0.0322,-0.083,0.003,-0.015
1670266421.039958,-9.919,-0.02,2.8970000000000002,0.8546,0.4829,-0.0322,-0.095,-0.003,0.004
1670266421.079958,-9.895,-0.038,2.842,0.8565,0.4833,-0.0227,-0.092,-0.012,-0.002
1670266421.119958,-9.913,-0.015,2.878,0.8517,0.4813,-0.0233,-0.073,0.007,-0.027
1670266421.159958,-9.892,0.028,2.837,0.8528,0.4844,-0.023100000000000002,-0.074,0.018000000000000002,-0.02
1670266421.1999578,-9.833,-0.013000000000000001,2.858,0.8542000000000001,0.4834,-0.028800000000000003,-0.073,0.02,-0.003
1670266421.239958,-9.839,0.023,2.8810000000000002,0.8498,0.4854,-0.0374,-0.068,0.027,-0.031
1670266421.279958,-9.868,-0.089,2.816,0.8573000000000001,0.4843,-0.0325,-0.07100000000000001,0.026000000000000002,-0.022
1670266421.319958,-9.912,0.097,2.823,0.8606,0.4817,-0.0291,-0.07,0.012,0.001
1670266421.359958,-9.909,-0.093,2.826,0.8587,0.48500000000000004,-0.0292,-0.083,0.006,-0.006
1670266421.399958,-9.871,-0.014,2.797,0.8604,0.4849,-0.027200000000000002,-0.10200000000000001,0.002,-0.012
1670266421.4399579,-9.814,-0.035,2.853,0.8540000000000001,0.4828,-0.0228,-0.091,-0.004,-0.012
1670266421.479958,-9.816,0.005,2.83,0.8564,0.4832,-0.0286,-0.065,-0.019,-0.027
1670266421.519958,-9.913,-0.015,2.871,0.8455,0.4818,-0.0273,-0.062,0.006,-0.018000000000000002
1670266421.559958,-9.856,-0.066,2.86,0.8583000000000001,0.4834,-0.027,-0.076,0.0,-0.015
1670266421.599958,-9.829,-0.009000000000000001,2.866,0.8484,0.47890000000000005,-0.0181,-0.083,0.0,-0.001
1670266421.639957,-9.955,-0.044,2.906,0.8547,0.4827,-0.028,-0.077,0.009000000000000001,-0.008
1670266421.679957,-9.919,0.011,2.854,0.8578,0.48460000000000003,-0.0256,-0.073,0.01,-0.019
1670266421.719957,-9.883000000000001,-0.023,2.9,0.8578,0.4806,-0.0267,-0.084,-0.011,0.004
1670266421.759957,-9.876,0.029,2.803,0.8576,0.48200000000000004,-0.0273,-0.08,-0.008,-0.009000000000000001
1670266421.799957,-9.861,-0.045,2.843,0.8567,0.48400000000000004,-0.0261,-0.076,-0.003,-0.012
1670266421.839957,-9.903,-0.017,2.867,0.8548,0.48250000000000004,-0.029400000000000003,-0.075,-0.01,0.0
1670266421.879957,-9.905,0.002,2.85,0.8581000000000001,0.4848,-0.025400000000000002,-0.085,0.022,-0.014
1670266421.919957,-9.904,-0.038,2.8810000000000002,0.8576,0.48310000000000003,-0.0247,-0.093,0.032,-0.008
1670266421.959957,-9.868,-0.038,2.8850000000000002,0.8582000000000001,0.4838,-0.0269,-0.08,0.016,-0.004
1670266421.9999568,-9.914,0.019,2.827,0.8563000000000001,0.4823,-0.0267,-0.074,0.005,-0.015
1670266422.039957,-9.937,-0.034,2.874,0.8568,0.48160000000000003,-0.0264,-0.078,0.004,-0.012
1670266422.079957,-9.885,-0.005,2.863,0.8496,0.48040000000000005,-0.0207,-0.076,0.0,-0.016
1670266422.119957,-9.789,-0.024,2.7840000000000003,0.8584,0.48140000000000005,-0.0285,-0.065,-0.021,-0.018000000000000002
1670266422.159957,-10.026,0.068,2.8850000000000002,0.8579,0.48300000000000004,-0.0267,-0.063,0.016,0.001
1670266422.199957,-9.867,-0.058,2.862,0.8567,0.4822,-0.0263,-0.076,-0.009000000000000001,-0.01
1670266422.2399569,-9.868,-0.015,2.9010000000000002,0.8583000000000001,0.4807,-0.029400000000000003,-0.074,0.004,-0.015
1670266422.279957,-9.85,0.004,2.831,0.8511000000000001,0.4843,-0.0284,-0.084,0.001,-0.015
1670266422.319957,-9.845,0.005,2.915,0.8547,0.4817,-0.0222,-0.075,-0.007,-0.012
1670266422.359957,-9.924,-0.008,2.809,0.8561000000000001,0.48190000000000005,-0.0256,-0.066,0.01,-0.029
1670266422.399957,-9.902000000000001,0.031,2.869,0.8573000000000001,0.48210000000000003,-0.027700000000000002,-0.065,0.008,-0.015
1670266422.439957,-9.856,-0.038,2.888,0.8551000000000001,0.4849,-0.0274,-0.081,0.0,-0.004
1670266422.4799569,-9.849,0.007,2.851,0.8559,0.4824,-0.0263,-0.073,0.001,-0.015
1670266422.519957,-9.845,-0.022,2.882,0.8592000000000001,0.48250000000000004,-0.027700000000000002,-0.07100000000000001,0.004,-0.01
1670266422.559957,-9.855,-0.006,2.875,0.8573000000000001,0.48400000000000004,-0.028800000000000003,-0.076,-0.002,-0.007
1670266422.599957,-9.908,-0.023,2.943,0.8558,0.48510000000000003,-0.0275,-0.062,0.008,-0.022
1670266422.639957,-9.85,-0.04,2.858,0.8594,0.4843,-0.025400000000000002,-0.084,0.006,-0.01
1670266422.679956,-9.947000000000001,-0.014,2.932,0.8562000000000001,0.4839,-0.024300000000000002,-0.078,0.013000000000000001,-0.012
1670266422.719956,-9.881,-0.019,2.8890000000000002,0.8562000000000001,0.4829,-0.0273,-0.09,0.005,-0.005
1670266422.759956,-9.876,-0.021,2.886,0.8586,0.4829,-0.028200000000000003,-0.092,0.003,-0.018000000000000002
1670266422.7999558,-9.853,0.007,2.842,0.8554,0.4832,-0.0262,-0.084,0.013000000000000001,-0.015
1670266422.839956,-9.849,-0.018000000000000002,2.825,0.8543000000000001,0.4837,-0.028200000000000003,-0.065,0.014,-0.021
1670266422.879956,-9.963000000000001,-0.017,2.9090000000000003,0.8548,0.48200000000000004,-0.025,-0.07100000000000001,0.021,-0.013000000000000001
1670266422.919956,-9.821,0.01,2.868,0.8576,0.48350000000000004,-0.0274,-0.07100000000000001,0.01,-0.007
1670266422.959956,-9.941,0.014,2.9290000000000003,0.8490000000000001,0.4812,-0.028300000000000002,-0.059000000000000004,0.01,-0.003
1670266422.999956,-9.871,-0.036000000000000004,2.844,0.8545,0.4832,-0.0261,-0.089,0.0,-0.01
1670266423.0399559,-9.859,0.008,2.833,0.8528,0.4813,-0.0284,-0.092,0.02,-0.019
1670266423.079956,-9.85,0.013000000000000001,2.845,0.8565,0.4827,-0.027600000000000003,-0.091,0.004,-0.016
1670266423.119956,-9.85,0.027,2.87,0.8563000000000001,0.4824,-0.028900000000000002,-0.085,0.013000000000000001,-0.011
1670266423.159956,-9.893,-0.034,2.8810000000000002,0.8601000000000001,0.48360000000000003,-0.028,-0.075,0.013000000000000001,-0.016
