timestamp,acc_x,acc_y,acc_z,magn_x,magn_y,magn_z,gyro_x,gyro_y,gyro_z
1670268459.24,-9.370000000000001,-0.023,4.4350000000000005,0.1164,0.7163,0.1529,0.023,-0.007,-0.003
1670268459.28,-9.399000000000001,-0.05,4.477,0.1163,0.7172000000000001,0.1519,0.016,-0.007,0.004
1670268459.32,-9.431000000000001,-0.037,4.415,0.1119,0.7170000000000001,0.15080000000000002,0.02,-0.003,0.003
1670268459.36,-9.428,-0.062,4.44,0.11720000000000001,0.7209,0.1511,0.029,-0.012,-0.007
1670268459.4,-9.434000000000001,-0.053,4.433,0.11520000000000001,0.7190000000000001,0.1507,0.027,-0.013000000000000001,0.0
1670268459.44,-9.385,-0.062,4.422,0.1177,0.7174,0.15510000000000002,0.012,-0.016,-0.001
1670268459.48,-9.437,-0.015,4.391,0.1163,0.7173,0.1525,0.019,-0.016,-0.003
1670268459.52,-9.446,-0.062,4.418,0.112,0.7198,0.16,0.022,-0.017,-0.011
1670268459.559999,-9.4,-0.099,4.474,0.11860000000000001,0.7210000000000001,0.15280000000000002,0.004,-0.022,-0.01
1670268459.599999,-9.431000000000001,-0.089,4.484,0.116,0.7189,0.1514,0.002,-0.025,-0.013000000000000001
1670268459.639999,-9.487,0.068,4.484,0.11560000000000001,0.7168,0.1519,0.013000000000000001,-0.016,0.012
1670268459.6799989,-9.385,-0.105,4.499,0.1174,0.7204,0.15360000000000001,0.016,-0.007,0.001
1670268459.719999,-9.342,0.001,4.4110000000000005,0.1168,0.7163,0.1525,0.029,-0.012,-0.009000000000000001
1670268459.759999,-9.431000000000001,-0.088,4.464,0.1184,0.7198,0.1527,0.025,-0.02,-0.007
1670268459.799999,-9.457,-0.051000000000000004,4.408,0.11910000000000001,0.7193,0.1526,0.019,-0.014,0.005
1670268459.839999,-9.401,-0.095,4.507,0.11620000000000001,0.7160000000000001,0.156,0.019,-0.01,-0.004
1670268459.879999,-9.396,0.039,4.487,0.1207,0.7193,0.1507,0.031,-0.02,-0.002
1670268459.919999,-9.427,-0.134,4.477,0.1184,0.7182000000000001,0.153,0.018000000000000002,-0.015,-0.004
1670268459.959999,-9.398,-0.001,4.412,0.1183,0.7215,0.1527,0.022,-0.017,-0.004
1670268459.999999,-9.401,-0.034,4.463,0.1163,0.7215,0.1516,0.028,-0.008,-0.001
1670268460.039999,-9.408,-0.034,4.405,0.11720000000000001,0.7201000000000001,0.1544,0.023,-0.014,0.004
1670268460.079999,-9.415000000000001,-0.019,4.4430000000000005,0.11710000000000001,0.7169,0.1535,0.029,-0.02,-0.009000000000000001
1670268460.119999,-9.426,-0.044,4.488,0.1174,0.7192000000000001,0.1516,0.019,-0.023,-0.008
1670268460.159999,-9.364,-0.035,4.4670000000000005,0.11850000000000001,0.7193,0.15030000000000002,0.009000000000000001,-0.025,-0.003
1670268460.199999,-9.418000000000001,-0.005,4.462,0.117,0.7198,0.1532,0.018000000000000002,-0.025,-0.009000000000000001
1670268460.239999,-9.412,0.004,4.492,0.1187,0.7189,0.1535,0.023,-0.024,-0.016
1670268460.279999,-9.401,-0.06,4.472,0.1169,0.7197,0.1527,0.017,-0.017,-0.017
1670268460.319999,-9.358,-0.114,4.471,0.1058,0.7154,0.1539,0.007,-0.029,-0.014
1670268460.359999,-9.427,-0.061,4.522,0.11670000000000001,0.7198,0.1512,0.004,-0.025,0.005
1670268460.399999,-9.507,0.092,4.447,0.115,0.7170000000000001,0.1516,0.018000000000000002,-0.013000000000000001,-0.001
1670268460.439999,-9.362,-0.081,4.455,0.11810000000000001,0.7203,0.15380000000000002,0.04,-0.011,-0.009000000000000001
1670268460.479999,-9.314,-0.014,4.487,0.1149,0.7205,0.153,0.038,-0.016,-0.01
1670268460.519999,-9.446,-0.089,4.4190000000000005,0.1144,0.7177,0.1526,0.022,-0.02,-0.007
1670268460.559999,-9.461,-0.013000000000000001,4.4750000000000005,0.1096,0.7151000000000001,0.15660000000000002,0.02,-0.009000000000000001,-0.01
1670268460.599998,-9.356,-0.084,4.537,0.11270000000000001,0.7166,0.1521,0.015,-0.005,-0.008
1670268460.639998,-9.391,0.014,4.477,0.11670000000000001,0.7195,0.16770000000000002,0.025,-0.007,-0.008
1670268460.679998,-9.415000000000001,-0.095,4.491,0.1149,0.7205,0.1452,0.016,-0.01,-0.005
1670268460.719998,-9.342,-0.018000000000000002,4.448,0.1158,0.7184,0.1553,0.011,-0.008,0.004
1670268460.759998,-9.398,-0.02,4.491,0.1095,0.7182000000000001,0.16740000000000002,0.019,-0.006,0.001
1670268460.799998,-9.38,-0.028,4.471,0.1155,0.7159,0.1517,0.03,-0.016,-0.008
1670268460.839998,-9.418000000000001,-0.031,4.481,0.11410000000000001,0.7174,0.1537,0.02,-0.013000000000000001,-0.006
1670268460.879998,-9.438,-0.025,4.465,0.1183,0.7198,0.15080000000000002,0.018000000000000002,-0.023,-0.005
1670268460.919998,-9.415000000000001,-0.017,4.433,0.1163,0.7175,0.1539,0.022,-0.019,-0.004
1670268460.959998,-9.373,-0.029,4.447,0.11460000000000001,0.7195,0.15230000000000002,0.016,-0.02,-0.005
1670268460.999998,-9.373,-0.011,4.492,0.1158,0.7197,0.1525,0.021,-0.021,-0.016
1670268461.039998,-9.389,-0.07,4.454,0.11560000000000001,0.7195,0.1527,0.028,-0.014,-0.01
1670268461.079998,-9.427,-0.069,4.487,0.11750000000000001,0.7164,0.1542,0.021,-0.018000000000000002,-0.01
1670268461.119998,-9.408,-0.048,4.557,0.1177,0.7204,0.1558,0.011,-0.025,-0.007
1670268461.159998,-9.447000000000001,0.09,4.4510000000000005,0.1164,0.7185,0.1554,0.025,-0.022,0.016
1670268461.199998,-9.412,-0.065,4.5120000000000005,0.1211,0.7154,0.1534,0.028,-0.007,0.003
1670268461.239998,-9.293000000000001,0.006,4.49,0.1189,0.7188,0.1572,0.033,-0.012,-0.027
1670268461.279998,-9.393,-0.053,4.476,0.1131,0.7187,0.1557,0.024,-0.026000000000000002,-0.008
1670268461.319998,-9.428,-0.015,4.479,0.117,0.7201000000000001,0.1558,0.006,-0.018000000000000002,-0.005
1670268461.359998,-9.369,-0.062,4.563,0.11560000000000001,0.7183,0.1532,0.015,-0.023,-0.009000000000000001
1670268461.399998,-9.348,0.02,4.538,0.116,0.7179,0.1555,0.014,-0.031,-0.016
1670268461.439998,-9.399000000000001,-0.108,4.49,0.1155,0.7173,0.15510000000000002,0.02,-0.022,-0.012
1670268461.479998,-9.369,0.0,4.49,0.11570000000000001,0.7210000000000001,0.1555,0.018000000000000002,-0.022,-0.009000000000000001
1670268461.519998,-9.396,-0.019,4.503,0.11670000000000001,0.7168,0.1552,0.022,-0.013000000000000001,0.0
1670268461.559998,-9.385,-0.051000000000000004,4.521,0.116,0.7184,0.15460000000000002,0.03,-0.021,-0.009000000000000001
1670268461.599998,-9.393,-0.016,4.5040000000000004,0.11570000000000001,0.7196,0.1542,0.026000000000000002,-0.016,-0.012
1670268461.639997,-9.396,-0.046,4.5120000000000005,0.11670000000000001,0.7197,0.1514,0.028,-0.014,-0.006
1670268461.679997,-9.382,-0.04,4.5120000000000005,0.1136,0.7183,0.15330000000000002,0.019,-0.01,-0.01
1670268461.719997,-9.376,-0.034,4.49,0.11610000000000001,0.7196,0.15380000000000002,0.018000000000000002,-0.01,-0.01
1670268461.759997,-9.351,-0.04,4.548,0.1136,0.7177,0.1535,0.007,-0.01,-0.007
1670268461.799997,-9.421,-0.046,4.453,0.1145,0.7144,0.15960000000000002,0.01,-0.012,-0.005
1670268461.839997,-9.403,-0.03,4.491,0.1149,0.7206,0.15410000000000001,0.006,-0.014,-0.005
1670268461.879997,-9.379,-0.043000000000000003,4.5280000000000005,0.11510000000000001,0.7184,0.1525,0.018000000000000002,-0.009000000000000001,-0.007
1670268461.919997,-9.414,-0.061,4.506,0.1163,0.7182000000000001,0.154,0.015,-0.014,-0.006
1670268461.959997,-9.415000000000001,-0.076,4.497,0.11520000000000001,0.7182000000000001,0.1539,0.006,-0.01,0.014
1670268461.999997,-9.498,0.089,4.515,0.1053,0.7141000000000001,0.153,0.04,0.017,0.004
1670268462.039997,-9.388,-0.096,4.44,0.1163,0.7187,0.1557,0.044,-0.002,-0.018000000000000002
1670268462.079997,-9.297,-0.037,4.4110000000000005,0.1153,0.7176,0.1521,0.025,-0.018000000000000002,-0.014
1670268462.119997,-9.407,-0.08,4.452,0.114,0.7182000000000001,0.1547,-0.01,-0.026000000000000002,0.0
1670268462.159997,-9.464,0.013000000000000001,4.442,0.1144,0.7199,0.1532,0.005,-0.013000000000000001,-0.003
1670268462.199997,-9.385,-0.089,4.558,0.1168,0.7179,0.1554,0.008,-0.015,-0.023
1670268462.239997,-9.389,0.032,4.563,0.1139,0.7190000000000001,0.15810000000000002,0.016,-0.021,-0.014
1670268462.279997,-9.394,-0.117,4.505,0.1178,0.7190000000000001,0.1579,0.009000000000000001,-0.027,-0.007
1670268462.319997,-9.365,-0.038,4.522,0.11030000000000001,0.7185,0.1549,0.012,-0.023,-0.004
1670268462.359997,-9.396,-0.026000000000000002,4.497,0.1145,0.7170000000000001,0.1535,0.027,-0.026000000000000002,-0.005
1670268462.399997,-9.367,-0.05,4.49,0.1169,0.7199,0.1537,0.03,-0.022,-0.011
1670268462.439997,-9.381,-0.044,4.5600000000000005,0.1145,0.7220000000000001,0.1547,0.026000000000000002,-0.019,-0.003
1670268462.479997,-9.364,-0.053,4.5120000000000005,0.11460000000000001,0.7159,0.16690000000000002,0.017,-0.017,-0.002
1670268462.519997,-9.355,-0.076,4.496,0.1139,0.7183,0.1668,0.014,-0.018000000000000002,0.002
1670268462.5599968,-9.361,-0.024,4.499,0.11230000000000001,0.7153,0.15280000000000002,0.011,-0.019,-0.002
1670268462.599997,-9.361,-0.026000000000000002,4.5360000000000005,0.1182,0.7191000000000001,0.1567,0.018000000000000002,-0.022,-0.006
1670268462.639997,-9.352,-0.055,4.539,0.11080000000000001,0.7184,0.1514,0.023,-0.017,-0.012
1670268462.679996,-9.337,-0.04,4.5440000000000005,0.1153,0.7213,0.15560000000000002,0.026000000000000002,-0.023,-0.008
1670268462.719996,-9.368,-0.079,4.519,0.11720000000000001,0.7171000000000001,0.15380000000000002,0.016,-0.028,-0.009000000000000001
1670268462.759996,-9.388,0.016,4.5520000000000005,0.11420000000000001,0.7168,0.1554,0.009000000000000001,-0.022,-0.004
1670268462.799996,-9.405,-0.068,4.4750000000000005,0.10650000000000001,0.7137,0.15610000000000002,0.034,-0.01,0.004
1670268462.839996,-9.276,-0.018000000000000002,4.515,0.11560000000000001,0.7180000000000001,0.15380000000000002,0.037,-0.017,-0.018000000000000002
1670268462.879996,-9.342,-0.061,4.506,0.11270000000000001,0.7196,0.15360000000000001,0.027,-0.023,-0.011
1670268462.919996,-9.407,-0.043000000000000003,4.48,0.1158,0.7200000000000001,0.1558,0.016,-0.006,-0.003
1670268462.959996,-9.301,-0.066,4.5280000000000005,0.1114,0.7171000000000001,0.1557,0.009000000000000001,-0.011,-0.01
1670268462.999996,-9.32,-0.04,4.591,0.1134,0.7187,0.15710000000000002,0.007,-0.009000000000000001,-0.001
1670268463.039996,-9.388,-0.098,4.5120000000000005,0.1134,0.7187,0.1549,0.014,-0.003,-0.006
1670268463.079996,-9.352,-0.005,4.534,0.11470000000000001,0.7180000000000001,0.1534,0.006,-0.003,-0.005
1670268463.119996,-9.298,-0.052000000000000005,4.5520000000000005,0.11520000000000001,0.7188,0.15330000000000002,0.011,-0.002,0.003
1670268463.159996,-9.395,-0.046,4.537,0.1144,0.7183,0.1554,0.018000000000000002,-0.006,-0.005
1670268463.199996,-9.415000000000001,0.001,4.496,0.11420000000000001,0.7217,0.1544,0.02,-0.003,-0.009000000000000001
1670268463.239996,-9.395,-0.052000000000000005,4.539,0.11370000000000001,0.7165,0.1558,0.025,-0.01,-0.013000000000000001
1670268463.279996,-9.381,-0.083,4.484,0.115,0.7184,0.1539,0.005,-0.013000000000000001,-0.007
1670268463.319996,-9.363,-0.029,4.543,0.11230000000000001,0.7187,0.15330000000000002,-0.001,-0.009000000000000001,-0.003
1670268463.359996,-9.394,-0.05,4.474,0.11760000000000001,0.7189,0.1567,0.008,-0.017,-0.007
1670268463.399996,-9.353,-0.081,4.5360000000000005,0.1134,0.7197,0.15360000000000001,0.014,-0.016,-0.018000000000000002
1670268463.439996,-9.367,-0.07100000000000001,4.575,0.11470000000000001,0.7165,0.1547,0.013000000000000001,-0.019,-0.017
1670268463.479996,-9.312,-0.092,4.59,0.1139,0.7198,0.1559,0.008,-0.029,-0.007
1670268463.519996,-9.399000000000001,-0.059000000000000004,4.55,0.11710000000000001,0.7202000000000001,0.15510000000000002,0.023,-0.019,0.013000000000000001
1670268463.559996,-9.402000000000001,-0.08700000000000001,4.484,0.11080000000000001,0.7194,0.15560000000000002,0.032,-0.01,0.001
1670268463.5999959,-9.271,-0.03,4.546,0.1148,0.7202000000000001,0.15360000000000001,0.039,-0.013000000000000001,-0.008
1670268463.639996,-9.369,-0.08,4.493,0.11330000000000001,0.7195,0.1549,0.032,-0.021,-0.006
1670268463.679996,-9.395,-0.08600000000000001,4.554,0.1143,0.7191000000000001,0.1544,0.022,-0.014,0.0
1670268463.719995,-9.34,-0.031,4.598,0.11660000000000001,0.7197,0.1539,0.027,-0.019,-0.013000000000000001
1670268463.759995,-9.324,-0.084,4.5600000000000005,0.113,0.7175,0.1582,0.022,-0.024,-0.009000000000000001
1670268463.799995,-9.403,-0.056,4.542,0.1153,0.7170000000000001,0.1552,0.016,-0.018000000000000002,-0.004
1670268463.839995,-9.346,-0.007,4.555,0.115,0.7181000000000001,0.157,0.015,-0.016,-0.011
1670268463.879995,-9.353,-0.046,4.481,0.11410000000000001,0.7208,0.1552,0.019,-0.01,-0.002
1670268463.919995,-9.381,-0.035,4.476,0.1179,0.7188,0.1565,0.015,-0.009000000000000001,-0.008
1670268463.959995,-9.39,-0.034,4.494,0.11750000000000001,0.7187,0.15660000000000002,0.019,-0.011,-0.01
1670268463.999995,-9.364,-0.049,4.488,0.1067,0.7157,0.1579,0.011,-0.01,-0.003
1670268464.039995,-9.373,-0.078,4.509,0.1126,0.7182000000000001,0.1539,0.011,-0.014,-0.007
1670268464.079995,-9.370000000000001,-0.034,4.5360000000000005,0.1143,0.7186,0.15480000000000002,0.011,-0.018000000000000002,-0.003
1670268464.119995,-9.394,-0.043000000000000003,4.537,0.1125,0.7184,0.1554,0.01,-0.015,-0.008
1670268464.159995,-9.369,-0.074,4.519,0.1126,0.7191000000000001,0.1555,0.014,-0.014,-0.013000000000000001
1670268464.199995,-9.397,-0.084,4.533,0.1148,0.7175,0.1554,0.011,-0.022,-0.012
1670268464.239995,-9.329,-0.108,4.597,0.1131,0.7186,0.1547,-0.005,-0.016,0.009000000000000001
1670268464.279995,-9.367,-0.01,4.563,0.116,0.7198,0.1565,0.027,-0.016,0.003
1670268464.319995,-9.415000000000001,-0.1,4.521,0.11520000000000001,0.7212000000000001,0.1565,0.035,-0.008,-0.006
1670268464.359995,-9.287,-0.016,4.5120000000000005,0.1102,0.7177,0.1715,0.031,-0.013000000000000001,-0.009000000000000001
1670268464.3999949,-9.352,-0.11,4.537,0.11380000000000001,0.7193,0.16540000000000002,0.016,-0.021,0.0
1670268464.439995,-9.384,-0.033,4.546,0.11280000000000001,0.7184,0.15810000000000002,0.013000000000000001,-0.015,0.004
1670268464.479995,-9.345,-0.05,4.53,0.11320000000000001,0.7171000000000001,0.1713,0.017,-0.014,-0.008
1670268464.519995,-9.393,-0.068,4.5040000000000004,0.1114,0.7201000000000001,0.15660000000000002,0.026000000000000002,-0.011,-0.004
1670268464.559995,-9.358,-0.011,4.4750000000000005,0.1125,0.7152000000000001,0.1526,0.015,-0.012,0.0
1670268464.599995,-9.311,-0.032,4.573,0.1153,0.7193,0.1557,0.019,-0.009000000000000001,0.001
1670268464.6399949,-9.373,-0.029,4.526,0.11420000000000001,0.7189,0.15510000000000002,0.024,-0.011,0.0
1670268464.679995,-9.378,-0.034,4.57,0.11280000000000001,0.7187,0.15510000000000002,0.028,-0.012,0.0
1670268464.719995,-9.384,-0.031,4.5040000000000004,0.1169,0.7184,0.1575,0.025,-0.014,-0.003
1670268464.759995,-9.374,-0.10400000000000001,4.493,0.116,0.7170000000000001,0.1574,-0.007,0.01,0.014
1670268464.799995,-9.36,-0.033,4.482,0.11800000000000001,0.7187,0.1525,0.0,0.001,0.002
1670268464.839994,-9.358,-0.026000000000000002,4.491,0.11720000000000001,0.7178,0.15510000000000002,0.025,-0.016,-0.012
1670268464.879994,-9.369,-0.036000000000000004,4.495,0.11280000000000001,0.7160000000000001,0.15610000000000002,0.049,-0.043000000000000003,-0.036000000000000004
1670268464.919994,-9.396,-0.004,4.478,0.1154,0.7180000000000001,0.155,0.054,-0.038,-0.034
1670268464.959994,-9.257,-0.195,4.5280000000000005,0.11460000000000001,0.7193,0.1582,0.02,-0.034,-0.016
1670268464.999994,-9.444,-0.029,4.594,0.112,0.7165,0.154,0.002,-0.036000000000000004,0.009000000000000001
1670268465.039994,-9.464,0.054,4.546,0.11670000000000001,0.7187,0.1568,0.03,-0.027,0.0
1670268465.079994,-9.291,-0.016,4.549,0.11560000000000001,0.7187,0.15960000000000002,0.039,-0.023,-0.024
1670268465.119994,-9.276,-0.069,4.575,0.11380000000000001,0.7181000000000001,0.1593,0.034,-0.03,-0.028
1670268465.159994,-9.349,-0.089,4.572,0.1148,0.7163,0.15610000000000002,0.01,-0.035,-0.009000000000000001
1670268465.1999938,-9.370000000000001,0.017,4.642,0.11330000000000001,0.7193,0.1563,0.004,-0.02,-0.008
1670268465.239994,-9.349,-0.125,4.578,0.11040000000000001,0.7229,0.1575,0.004,-0.016,-0.013000000000000001
1670268465.279994,-9.363,0.037,4.639,0.1139,0.7218,0.158,0.017,-0.019,-0.014
1670268465.319994,-9.333,-0.092,4.626,0.1134,0.7174,0.1579,-0.001,-0.013000000000000001,-0.005
1670268465.359994,-9.332,-0.021,4.537,0.113,0.7209,0.1554,0.009000000000000001,-0.013000000000000001,-0.007
1670268465.399994,-9.318,-0.049,4.617,0.1131,0.7195,0.1565,0.005,-0.011,-0.005
1670268465.4399939,-9.329,-0.069,4.556,0.1134,0.7219,0.1572,0.002,-0.016,-0.009000000000000001
1670268465.479994,-9.381,-0.061,4.591,0.1139,0.7185,0.155,0.007,-0.013000000000000001,-0.012
1670268465.519994,-9.378,-0.08600000000000001,4.57,0.11320000000000001,0.7218,0.1597,0.003,-0.004,-0.011
1670268465.559994,-9.318,-0.107,4.59,0.11460000000000001,0.7209,0.1579,0.001,-0.004,-0.01
1670268465.599994,-9.331,-0.09,4.549,0.1131,0.7198,0.1573,0.005,-0.007,-0.005
1670268465.639994,-9.338000000000001,-0.112,4.58,0.11170000000000001,0.7181000000000001,0.156,0.007,-0.012,-0.007
1670268465.6799939,-9.35,-0.099,4.598,0.11280000000000001,0.7228,0.1558,0.017,-0.016,-0.01
1670268465.719994,-9.311,-0.107,4.612,0.113,0.7195,0.1555,0.014,-0.024,-0.008
1670268465.759994,-9.267,-0.169,4.534,0.1155,0.7218,0.158,0.017,-0.029,-0.007
1670268465.799994,-9.379,-0.11,4.646,0.1106,0.7219,0.1582,0.028,-0.021,0.015
1670268465.839994,-9.434000000000001,-0.01,4.619,0.116,0.7227,0.1558,0.039,0.0,0.004
1670268465.879993,-9.267,-0.10200000000000001,4.551,0.11420000000000001,0.7232000000000001,0.15760000000000002,0.05,-0.012,-0.006
1670268465.919993,-9.264,-0.097,4.5600000000000005,0.1143,0.7188,0.1554,0.027,-0.026000000000000002,-0.003
1670268465.959993,-9.346,-0.122,4.577,0.1136,0.7190000000000001,0.1578,0.02,-0.022,-0.007
1670268465.9999928,-9.35,-0.067,4.603,0.1135,0.7222000000000001,0.1552,0.02,-0.022,-0.014
1670268466.039993,-9.311,-0.14300000000000002,4.64,0.11230000000000001,0.7210000000000001,0.157,0.016,-0.027,-0.002
1670268466.079993,-9.363,0.002,4.621,0.1115,0.7179,0.16040000000000001,0.026000000000000002,-0.013000000000000001,-0.003
1670268466.119993,-9.355,-0.115,4.569,0.1148,0.7207,0.1597,0.028,-0.01,-0.002
1670268466.159993,-9.327,-0.055,4.61,0.11230000000000001,0.7191000000000001,0.1558,0.025,-0.008,0.008
1670268466.199993,-9.316,-0.074,4.5840000000000005,0.1129,0.7212000000000001,0.1688,0.029,-0.009000000000000001,0.001
1670268466.2399929,-9.329,-0.053,4.5840000000000005,0.11040000000000001,0.7194,0.1369,0.034,-0.007,-0.003
1670268466.279993,-9.349,-0.075,4.542,0.1119,0.7174,0.155,0.021,-0.008,-0.004
1670268466.319993,-9.358,-0.061,4.5600000000000005,0.1082,0.7146,0.1579,0.012,-0.012,-0.005
1670268466.359993,-9.309000000000001,-0.065,4.559,0.1097,0.7175,0.1718,0.009000000000000001,-0.009000000000000001,-0.006
1670268466.399993,-9.343,-0.053,4.525,0.1129,0.7188,0.158,0.005,-0.01,-0.004
1670268466.439993,-9.305,-0.088,4.589,0.11220000000000001,0.7188,0.1554,0.011,-0.016,-0.009000000000000001
1670268466.4799929,-9.333,-0.073,4.631,0.11420000000000001,0.7199,0.1572,0.013000000000000001,-0.015,-0.021
1670268466.519993,-9.318,-0.081,4.596,0.1095,0.7162000000000001,0.1564,0.004,-0.011,-0.006
1670268466.559993,-9.39,-0.027,4.609,0.11610000000000001,0.7196,0.15960000000000002,0.005,-0.008,0.011
1670268466.599993,-9.345,-0.125,4.54,0.11520000000000001,0.7191000000000001,0.1568,0.022,-0.006,0.002
1670268466.639993,-9.252,-0.039,4.554,0.11230000000000001,0.7210000000000001,0.1574,0.023,-0.003,-0.005
1670268466.679993,-9.339,-0.082,4.541,0.1155,0.7205,0.15430000000000002,0.031,-0.008,-0.002
1670268466.7199929,-9.353,-0.08,4.554,0.1131,0.7186,0.1568,0.006,-0.012,-0.001
1670268466.759993,-9.293000000000001,-0.11800000000000001,4.58,0.115,0.7206,0.1582,0.005,-0.015,-0.013000000000000001
1670268466.799993,-9.261000000000001,-0.056,4.589,0.1155,0.7204,0.1569,0.007,-0.019,0.001
1670268466.839993,-9.353,-0.126,4.604,0.11330000000000001,0.7215,0.1573,0.012,-0.013000000000000001,-0.009000000000000001
1670268466.879993,-9.294,-0.031,4.609,0.11380000000000001,0.7202000000000001,0.1592,0.019,-0.011,-0.007
1670268466.919992,-9.336,-0.084,4.578,0.1139,0.7209,0.1568,0.021,-0.01,0.0
1670268466.959992,-9.379,-0.054,4.554,0.1148,0.7181000000000001,0.1539,0.021,-0.009000000000000001,0.005
1670268466.999992,-9.336,-0.059000000000000004,4.539,0.1148,0.7219,0.1577,0.032,-0.013000000000000001,-0.006
1670268467.0399919,-9.333,-0.094,4.539,0.11320000000000001,0.7179,0.15940000000000001,0.024,-0.01,-0.01
1670268467.079992,-9.342,-0.089,4.5280000000000005,0.1144,0.7193,0.1565,0.004,-0.011,0.0
1670268467.119992,-9.324,-0.044,4.543,0.1131,0.7185,0.1568,0.01,-0.012,0.001
1670268467.159992,-9.356,-0.045,4.567,0.1158,0.7198,0.1575,0.017,-0.007,-0.004
1670268467.199992,-9.323,-0.082,4.564,0.1126,0.7180000000000001,0.1582,0.018000000000000002,-0.017,-0.012
1670268467.239992,-9.349,-0.055,4.534,0.113,0.7198,0.1547,0.015,-0.013000000000000001,-0.009000000000000001
1670268467.2799919,-9.321,-0.096,4.5760000000000005,0.1139,0.7208,0.15710000000000002,0.003,-0.022,-0.006
1670268467.319992,-9.368,-0.043000000000000003,4.621,0.11520000000000001,0.7175,0.1588,0.023,-0.019,0.006
1670268467.359992,-9.419,-0.074,4.507,0.1075,0.7173,0.1578,0.026000000000000002,-0.007,0.0
1670268467.399992,-9.247,-0.042,4.586,0.114,0.7186,0.1562,0.018000000000000002,-0.009000000000000001,-0.012
1670268467.439992,-9.362,-0.09,4.539,0.11420000000000001,0.7192000000000001,0.1582,0.023,-0.014,-0.005
1670268467.479992,-9.373,-0.084,4.554,0.1145,0.7190000000000001,0.1572,0.007,-0.012,0.0
1670268467.5199919,-9.367,-0.043000000000000003,4.573,0.1131,0.7185,0.1577,0.015,-0.007,-0.003
1670268467.559992,-9.314,-0.074,4.548,0.115,0.7185,0.15360000000000001,0.042,-0.01,-0.008
1670268467.599992,-9.387,-0.038,4.5840000000000005,0.11320000000000001,0.7182000000000001,0.1567,0.034,-0.009000000000000001,-0.013000000000000001
1670268467.639992,-9.365,-0.063,4.61,0.115,0.7198,0.1557,0.014,-0.01,-0.01
1670268467.679992,-9.335,-0.091,4.502,0.112,0.7192000000000001,0.1585,0.0,-0.037,-0.006
1670268467.719992,-9.363,-0.031,4.621,0.1164,0.7196,0.15380000000000002,0.013000000000000001,-0.029,-0.004
1670268467.759992,-9.363,-0.053,4.5760000000000005,0.1126,0.7202000000000001,0.1558,0.021,-0.022,-0.006
1670268467.799992,-9.349,-0.043000000000000003,4.571,0.11330000000000001,0.7174,0.1569,0.028,-0.023,-0.019
1670268467.839992,-9.321,-0.082,4.5440000000000005,0.10880000000000001,0.7150000000000001,0.1673,0.017,-0.022,-0.012
1670268467.879992,-9.335,-0.068,4.559,0.1105,0.7165,0.1572,0.011,-0.022,-0.007
1670268467.919992,-9.321,-0.078,4.593,0.1134,0.7191000000000001,0.1557,0.01,-0.027,-0.01
1670268467.959991,-9.345,-0.067,4.58,0.11420000000000001,0.7189,0.1563,0.017,-0.03,-0.011
1670268467.999991,-9.349,-0.063,4.634,0.1124,0.7201000000000001,0.1582,0.011,-0.027,-0.006
1670268468.039991,-9.329,-0.1,4.611,0.1124,0.7177,0.1575,0.02,-0.023,-0.003
1670268468.0799909,-9.304,-0.082,4.639,0.09860000000000001,0.7179,0.15990000000000001,0.018000000000000002,-0.027,-0.009000000000000001
1670268468.119991,-9.365,-0.033,4.642,0.1116,0.7187,0.164,0.029,-0.013000000000000001,0.014
1670268468.159991,-9.367,-0.127,4.566,0.10940000000000001,0.7190000000000001,0.16970000000000002,0.039,-0.001,0.005
1670268468.199991,-9.26,-0.011,4.529,0.1107,0.7176,0.12840000000000001,0.036000000000000004,-0.007,-0.01
1670268468.239991,-9.323,-0.07,4.555,0.112,0.7178,0.15990000000000001,0.024,-0.017,-0.01
1670268468.279991,-9.36,-0.036000000000000004,4.622,0.11120000000000001,0.7169,0.156,0.008,-0.013000000000000001,-0.005
1670268468.3199909,-9.298,-0.035,4.601,0.11180000000000001,0.7174,0.15810000000000002,0.021,-0.015,-0.012
1670268468.359991,-9.271,-0.05,4.594,0.10890000000000001,0.7205,0.15960000000000002,0.017,-0.015,-0.014
1670268468.399991,-9.329,-0.06,4.64,0.11220000000000001,0.7185,0.1568,0.013000000000000001,-0.02,-0.009000000000000001
1670268468.439991,-9.318,-0.028,4.579,0.11130000000000001,0.7184,0.159,0.014,-0.015,-0.012
1670268468.479991,-9.294,-0.065,4.585,0.11410000000000001,0.7166,0.1579,0.019,-0.014,-0.005
1670268468.519991,-9.309000000000001,-0.05,4.619,0.1153,0.7182000000000001,0.1593,0.026000000000000002,-0.013000000000000001,-0.004
1670268468.559991,-9.318,-0.025,4.636,0.113,0.7172000000000001,0.15990000000000001,0.023,-0.003,0.001
1670268468.599991,-9.326,-0.056,4.585,0.1124,0.7186,0.1641,0.025,-0.008,-0.009000000000000001
1670268468.639991,-9.3,-0.057,4.579,0.113,0.7199,0.15810000000000002,0.015,-0.01,-0.005
1670268468.679991,-9.318,-0.047,4.5920000000000005,0.11170000000000001,0.7175,0.15660000000000002,0.015,-0.016,-0.006
1670268468.719991,-9.358,-0.041,4.607,0.1131,0.7168,0.1588,0.009000000000000001,-0.006,0.0
1670268468.759991,-9.336,-0.015,4.597,0.1136,0.7187,0.15460000000000002,0.013000000000000001,-0.015,-0.01
1670268468.799991,-9.327,-0.07,4.5840000000000005,0.11370000000000001,0.7200000000000001,0.1585,0.02,-0.009000000000000001,-0.013000000000000001
1670268468.839991,-9.34,-0.07,4.622,0.1139,0.7171000000000001,0.1587,0.018000000000000002,-0.007,-0.011
1670268468.879991,-9.274000000000001,-0.063,4.66,0.11510000000000001,0.7194,0.1575,0.01,-0.023,-0.005
1670268468.919991,-9.343,0.052000000000000005,4.646,0.11330000000000001,0.7192000000000001,0.15860000000000002,0.019,-0.021,0.01
1670268468.959991,-9.358,-0.12,4.58,0.1129,0.7184,0.1554,0.033,-0.001,-0.005
1670268468.99999,-9.276,-0.006,4.597,0.1125,0.7189,0.1574,0.028,-0.009000000000000001,-0.009000000000000001
1670268469.03999,-9.309000000000001,-0.074,4.574,0.1134,0.7184,0.1605,0.013000000000000001,-0.013000000000000001,0.0
1670268469.07999,-9.339,-0.026000000000000002,4.595,0.11170000000000001,0.7181000000000001,0.1579,0.004,-0.01,0.0
1670268469.1199899,-9.318,-0.014,4.579,0.1131,0.7182000000000001,0.16010000000000002,0.016,-0.012,-0.015
1670268469.15999,-9.315,-0.074,4.555,0.112,0.7203,0.1579,0.014,-0.019,-0.009000000000000001
1670268469.19999,-9.36,-0.083,4.586,0.112,0.7169,0.1574,0.009000000000000001,-0.005,-0.007
1670268469.23999,-9.308,0.0,4.581,0.11320000000000001,0.7202000000000001,0.1568,0.003,0.003,-0.003
1670268469.27999,-9.323,-0.04,4.555,0.1153,0.7196,0.156,0.015,-0.006,0.001
1670268469.31999,-9.318,-0.04,4.609,0.11120000000000001,0.7171000000000001,0.15660000000000002,0.014,-0.016,-0.008
1670268469.35999,-9.373,-0.014,4.588,0.11370000000000001,0.7181000000000001,0.1564,0.015,-0.006,-0.012
1670268469.39999,-9.349,-0.07,4.541,0.11330000000000001,0.7173,0.1569,0.018000000000000002,-0.017,-0.008
1670268469.43999,-9.32,-0.049,4.538,0.11120000000000001,0.7180000000000001,0.1572,0.008,-0.012,-0.005
1670268469.47999,-9.323,-0.064,4.559,0.1148,0.7186,0.1567,0.006,-0.013000000000000001,-0.002
1670268469.51999,-9.334,-0.036000000000000004,4.555,0.1106,0.7171000000000001,0.154,0.01,-0.01,-0.006
1670268469.55999,-9.343,-0.081,4.557,0.11270000000000001,0.7198,0.1574,0.01,-0.007,-0.002
1670268469.59999,-9.348,-0.051000000000000004,4.5680000000000005,0.10500000000000001,0.7143,0.16720000000000002,0.016,-0.009000000000000001,-0.01
1670268469.63999,-9.332,-0.053,4.575,0.11220000000000001,0.7209,0.1574,0.011,-0.017,-0.005
1670268469.67999,-9.26,-0.10400000000000001,4.583,0.111,0.7171000000000001,0.1553,0.007,-0.024,-0.01
1670268469.71999,-9.368,-0.077,4.632,0.1136,0.7191000000000001,0.1574,0.024,-0.019,0.015
1670268469.75999,-9.412,0.01,4.6610000000000005,0.11330000000000001,0.7206,0.15910000000000002,0.026000000000000002,-0.003,-0.003
1670268469.79999,-9.273,-0.081,4.531,0.1145,0.7193,0.1559,0.023,-0.013000000000000001,-0.016
1670268469.83999,-9.303,-0.064,4.53,0.09910000000000001,0.7177,0.16060000000000002,0.012,-0.016,-0.005
1670268469.87999,-9.345,-0.082,4.593,0.1153,0.7188,0.1569,0.002,-0.013000000000000001,0.002
1670268469.91999,-9.373,-0.033,4.643,0.1086,0.7189,0.1516,0.008,-0.014,-0.018000000000000002
1670268469.95999,-9.326,-0.152,4.628,0.1107,0.7194,0.14,0.01,-0.013000000000000001,0.0
1670268469.99999,-9.335,-0.128,4.636,0.1075,0.7185,0.1491,0.015,-0.015,-0.008
1670268470.039989,-9.295,-0.053,4.581,0.113,0.7193,0.13440000000000002,0.012,-0.011,-0.005
1670268470.079989,-9.308,-0.064,4.538,0.113,0.7182000000000001,0.15610000000000002,0.016,-0.014,0.0
1670268470.119989,-9.367,-0.066,4.571,0.1131,0.7233,0.1587,0.03,-0.016,-0.004
1670268470.1599889,-9.336,-0.078,4.588,0.1139,0.7190000000000001,0.1553,0.021,-0.009000000000000001,-0.006
1670268470.199989,-9.343,-0.061,4.551,0.10840000000000001,0.7193,0.1595,0.017,-0.011,0.0
1670268470.239989,-9.318,-0.082,4.597,0.11270000000000001,0.7190000000000001,0.1574,0.01,-0.012,0.0
1670268470.279989,-9.311,-0.07200000000000001,4.59,0.11470000000000001,0.7196,0.15610000000000002,0.007,-0.011,-0.001
1670268470.319989,-9.363,-0.055,4.6000000000000005,0.11280000000000001,0.7195,0.1555,0.008,-0.018000000000000002,-0.005
1670268470.359989,-9.354000000000001,-0.084,4.598,0.112,0.7182000000000001,0.1545,0.013000000000000001,-0.019,-0.009000000000000001
1670268470.399989,-9.339,-0.112,4.579,0.1149,0.7205,0.15480000000000002,0.018000000000000002,0.005,-0.002
1670268470.439989,-9.311,-0.111,4.561,0.11380000000000001,0.7162000000000001,0.15410000000000001,-0.022,0.015,0.023
1670268470.479989,-9.352,-0.076,4.567,0.113,0.7202000000000001,0.15410000000000001,-0.02,0.018000000000000002,0.019
1670268470.519989,-9.370000000000001,0.002,4.5200000000000005,0.1136,0.7193,0.15330000000000002,0.031,-0.004,0.006
1670268470.559989,-9.493,-0.068,4.586,0.112,0.7214,0.15760000000000002,0.07200000000000001,-0.027,-0.017
1670268470.599989,-9.272,-0.095,4.5840000000000005,0.1155,0.7185,0.1585,0.066,-0.058,-0.026000000000000002
1670268470.639989,-9.363,-0.064,4.493,0.11380000000000001,0.7180000000000001,0.1564,0.046,-0.03,-0.017
1670268470.679989,-9.319,-0.082,4.572,0.112,0.7181000000000001,0.1575,0.009000000000000001,-0.038,0.003
1670268470.719989,-9.387,0.018000000000000002,4.609,0.1105,0.7191000000000001,0.1564,0.024,-0.03,-0.01
1670268470.759989,-9.357,-0.093,4.569,0.1119,0.7188,0.1545,0.021,-0.026000000000000002,-0.024
1670268470.799989,-9.303,-0.024,4.66,0.10990000000000001,0.7190000000000001,0.1588,0.026000000000000002,-0.032,-0.021
1670268470.839989,-9.327,-0.069,4.657,0.11040000000000001,0.7183,0.1585,0.016,-0.02,-0.011
1670268470.879989,-9.293000000000001,-0.053,4.662,0.1086,0.7161000000000001,0.1583,0.023,-0.012,-0.008
1670268470.919989,-9.333,-0.063,4.641,0.1082,0.7159,0.15910000000000002,0.014,-0.012,-0.003
1670268470.959989,-9.311,-0.04,4.654,0.1114,0.7166,0.1564,0.02,-0.012,-0.005
1670268470.999989,-9.332,-0.077,4.627,0.1111,0.7190000000000001,0.161,0.015,-0.008,-0.005
1670268471.039989,-9.314,-0.075,4.604,0.1129,0.7155,0.1563,0.016,-0.005,-0.003
1670268471.079988,-9.331,-0.059000000000000004,4.581,0.11170000000000001,0.7171000000000001,0.15910000000000002,0.005,-0.004,0.004
1670268471.119988,-9.338000000000001,-0.057,4.589,0.11180000000000001,0.7181000000000001,0.1585,0.008,-0.008,-0.009000000000000001
1670268471.159988,-9.314,-0.09,4.627,0.10980000000000001,0.7185,0.15460000000000002,0.006,-0.012,-0.011
1670268471.199988,-9.342,-0.07100000000000001,4.604,0.1139,0.7196,0.1582,0.013000000000000001,-0.019,-0.011
1670268471.239988,-9.347,-0.099,4.499,0.111,0.7162000000000001,0.1564,0.02,-0.013000000000000001,-0.008
1670268471.279988,-9.308,-0.136,4.579,0.1109,0.7184,0.1572,0.017,-0.023,-0.009000000000000001
1670268471.319988,-9.342,-0.098,4.612,0.112,0.7179,0.15710000000000002,0.013000000000000001,-0.019,0.009000000000000001
1670268471.359988,-9.412,0.038,4.643,0.1091,0.7191000000000001,0.15380000000000002,0.035,-0.01,0.007
1670268471.399988,-9.305,-0.123,4.582,0.1071,0.7143,0.1577,0.037,-0.005,-0.01
1670268471.439988,-9.273,-0.049,4.6530000000000005,0.1101,0.7198,0.1579,0.027,-0.015,-0.012
1670268471.479988,-9.331,-0.101,4.564,0.11120000000000001,0.7173,0.158,0.012,-0.014,0.0
1670268471.519988,-9.381,-0.044,4.563,0.1116,0.7185,0.15860000000000002,0.015,-0.011,0.001
1670268471.559988,-9.296,-0.089,4.616,0.10790000000000001,0.7186,0.1585,0.012,-0.007,-0.01
1670268471.599988,-9.290000000000001,-0.029,4.595,0.099,0.7154,0.1621,0.02,-0.009000000000000001,-0.008
1670268471.639988,-9.34,-0.126,4.569,0.11130000000000001,0.7184,0.15910000000000002,0.013000000000000001,-0.006,0.0
1670268471.679988,-9.321,-0.013000000000000001,4.616,0.1067,0.7198,0.1557,0.023,-0.004,0.0
1670268471.719988,-9.298,-0.055,4.655,0.109,0.7208,0.1547,0.011,-0.01,0.0
1670268471.759988,-9.331,-0.075,4.546,0.1121,0.7176,0.1547,0.021,-0.01,-0.003
1670268471.799988,-9.367,-0.032,4.61,0.10690000000000001,0.7171000000000001,0.1308,0.018000000000000002,-0.012,-0.003
1670268471.839988,-9.357,-0.077,4.601,0.109,0.7210000000000001,0.1461,0.014,-0.01,-0.011
1670268471.879988,-9.349,-0.054,4.5920000000000005,0.1115,0.7185,0.1752,0.007,-0.011,-0.002
1670268471.919988,-9.323,-0.063,4.579,0.11080000000000001,0.7198,0.1637,0.015,-0.014,-0.008
1670268471.959988,-9.326,-0.068,4.611,0.1124,0.7188,0.1577,0.019,-0.007,-0.005
1670268471.999988,-9.354000000000001,-0.073,4.5520000000000005,0.11220000000000001,0.7173,0.15710000000000002,0.017,-0.011,-0.01
1670268472.039988,-9.238,-0.123,4.603,0.1102,0.7186,0.15610000000000002,0.012,-0.011,-0.002
1670268472.079988,-9.319,-0.098,4.618,0.1143,0.7188,0.1554,0.008,-0.01,0.005
1670268472.119987,-9.396,-0.001,4.628,0.1124,0.7194,0.1574,0.037,-0.016,0.001
1670268472.159987,-9.281,-0.07100000000000001,4.597,0.1109,0.7228,0.1572,0.039,-0.006,-0.007
1670268472.199987,-9.305,-0.082,4.579,0.1095,0.7196,0.1564,0.027,-0.013000000000000001,-0.009000000000000001
1670268472.239987,-9.335,-0.082,4.597,0.1145,0.7170000000000001,0.1552,0.008,-0.011,0.002
1670268472.279987,-9.343,-0.012,4.615,0.11030000000000001,0.7187,0.1572,0.012,-0.008,0.0
1670268472.319987,-9.331,-0.129,4.628,0.1126,0.7195,0.1559,0.024,-0.017,-0.016
1670268472.359987,-9.363,-0.001,4.59,0.11080000000000001,0.7195,0.16,0.009000000000000001,-0.012,-0.009000000000000001
1670268472.399987,-9.332,-0.088,4.593,0.11170000000000001,0.7187,0.1587,0.018000000000000002,-0.019,-0.004
1670268472.439987,-9.32,-0.07,4.586,0.11130000000000001,0.7196,0.1564,0.014,-0.007,-0.008
1670268472.479987,-9.315,-0.057,4.64,0.11220000000000001,0.7187,0.1597,0.021,-0.009000000000000001,0.002
1670268472.519987,-9.321,-0.053,4.598,0.11180000000000001,0.7169,0.1572,0.02,-0.013000000000000001,-0.001
1670268472.559987,-9.328,-0.062,4.595,0.1126,0.7185,0.15860000000000002,0.02,-0.007,-0.003
1670268472.599987,-9.333,-0.082,4.633,0.11230000000000001,0.7186,0.1557,0.015,-0.007,-0.005
1670268472.639987,-9.317,-0.096,4.574,0.1092,0.7192000000000001,0.1578,0.018000000000000002,-0.014,-0.006
1670268472.679987,-9.311,-0.075,4.61,0.11220000000000001,0.7200000000000001,0.156,0.012,-0.011,-0.006
1670268472.719987,-9.357,-0.077,4.558,0.11,0.7188,0.1577,0.016,-0.009000000000000001,-0.006
1670268472.759987,-9.336,-0.054,4.625,0.114,0.7191000000000001,0.15430000000000002,0.024,-0.018000000000000002,-0.009000000000000001
1670268472.799987,-9.351,-0.07100000000000001,4.609,0.10830000000000001,0.7200000000000001,0.1593,0.025,-0.011,-0.005
1670268472.839987,-9.286,-0.14400000000000002,4.5840000000000005,0.11230000000000001,0.7213,0.1554,0.011,-0.012,-0.001
1670268472.879987,-9.387,-0.084,4.61,0.1105,0.7176,0.1588,0.007,-0.012,0.004
1670268472.919987,-9.457,0.035,4.5200000000000005,0.1121,0.7190000000000001,0.1542,0.029,-0.005,0.003
1670268472.959987,-9.27,-0.109,4.6000000000000005,0.1115,0.7185,0.1544,0.034,-0.006,-0.01
1670268472.999987,-9.279,-0.068,4.551,0.112,0.7191000000000001,0.1558,0.021,-0.016,-0.006
1670268473.0399868,-9.344,-0.098,4.557,0.1131,0.7188,0.1585,0.009000000000000001,-0.019,-0.001
1670268473.079987,-9.358,-0.062,4.633,0.11230000000000001,0.7195,0.1578,0.02,-0.014,-0.009000000000000001
1670268473.119987,-9.313,-0.156,4.574,0.11270000000000001,0.7210000000000001,0.15610000000000002,0.016,-0.021,-0.019
1670268473.159986,-9.317,-0.002,4.5920000000000005,0.1086,0.7186,0.16160000000000002,0.013000000000000001,-0.019,-0.008
1670268473.199986,-9.318,-0.131,4.655,0.1109,0.7181000000000001,0.1592,0.012,-0.014,-0.005
1670268473.239986,-9.272,-0.06,4.62,0.11220000000000001,0.7165,0.1587,0.027,-0.013000000000000001,-0.001
1670268473.279986,-9.337,-0.085,4.6450000000000005,0.1121,0.7193,0.1568,0.033,-0.003,0.01
1670268473.319986,-9.319,-0.011,4.63,0.1109,0.7210000000000001,0.155,0.055,0.004,-0.008
1670268473.359986,-9.318,-0.091,4.534,0.1048,0.7173,0.1572,0.038,-0.002,-0.01
1670268473.399986,-9.323,-0.113,4.575,0.1111,0.7187,0.1563,0.01,-0.011,-0.003
1670268473.439986,-9.279,-0.08700000000000001,4.563,0.11080000000000001,0.7179,0.156,-0.018000000000000002,-0.034,-0.01
1670268473.479986,-9.361,-0.058,4.572,0.11220000000000001,0.7207,0.15480000000000002,-0.015,-0.024,-0.003
1670268473.519986,-9.356,-0.09,4.558,0.1116,0.7179,0.15380000000000002,-0.001,-0.02,-0.008
1670268473.559986,-9.336,-0.061,4.597,0.11230000000000001,0.7188,0.1552,0.012,-0.023,-0.017
1670268473.599986,-9.317,-0.11,4.547,0.1062,0.7168,0.1663,0.02,-0.023,-0.013000000000000001
1670268473.639986,-9.351,-0.068,4.575,0.1078,0.7192000000000001,0.1698,0.016,-0.025,-0.002
1670268473.679986,-9.309000000000001,-0.149,4.604,0.1109,0.7183,0.1754,0.012,-0.031,-0.006
1670268473.719986,-9.393,-0.064,4.595,0.10690000000000001,0.7202000000000001,0.14,0.027,-0.014,0.006
1670268473.759986,-9.217,-0.10300000000000001,4.611,0.11220000000000001,0.7189,0.1652,0.025,-0.011,-0.005
1670268473.799986,-9.32,-0.098,4.554,0.10990000000000001,0.7195,0.16160000000000002,0.023,-0.018000000000000002,-0.015
1670268473.8399858,-9.339,-0.122,4.631,0.11330000000000001,0.7196,0.158,0.017,-0.021,-0.004
1670268473.879986,-9.35,-0.06,4.59,0.10640000000000001,0.7146,0.166,0.011,-0.013000000000000001,0.004
1670268473.919986,-9.358,-0.158,4.609,0.11170000000000001,0.7192000000000001,0.158,0.015,-0.018000000000000002,-0.009000000000000001
1670268473.959986,-9.336,0.017,4.624,0.10980000000000001,0.7188,0.1602,0.015,-0.022,-0.009000000000000001
1670268473.999986,-9.353,-0.107,4.619,0.1111,0.7182000000000001,0.15710000000000002,0.018000000000000002,-0.014,0.0
1670268474.039986,-9.293000000000001,-0.07,4.582,0.1109,0.7185,0.1585,0.026000000000000002,-0.011,-0.004
1670268474.0799859,-9.293000000000001,-0.09,4.6000000000000005,0.10990000000000001,0.7176,0.1562,0.021,-0.017,0.002
1670268474.119986,-9.367,-0.05,4.597,0.1105,0.7178,0.158,0.021,-0.021,0.0
1670268474.159986,-9.301,-0.068,4.647,0.1121,0.7181000000000001,0.156,0.022,-0.022,-0.006
1670268474.199986,-9.35,-0.10200000000000001,4.606,0.1092,0.7193,0.1577,0.02,-0.014,-0.005
1670268474.239986,-9.296,-0.092,4.621,0.1131,0.7193,0.1589,0.01,-0.015,0.0
1670268474.279985,-9.336,-0.059000000000000004,4.607,0.1081,0.7178,0.158,0.006,-0.012,0.0
1670268474.319985,-9.306000000000001,-0.054,4.607,0.1106,0.7187,0.1565,0.023,-0.013000000000000001,-0.004
1670268474.359985,-9.32,-0.089,4.601,0.108,0.7193,0.1585,0.018000000000000002,-0.015,-0.009000000000000001
1670268474.399985,-9.331,-0.083,4.649,0.108,0.7180000000000001,0.15760000000000002,0.008,-0.012,-0.004
1670268474.439985,-9.27,-0.124,4.651,0.10990000000000001,0.7195,0.15760000000000002,0.009000000000000001,-0.01,0.002
1670268474.479985,-9.346,-0.09,4.628,0.11170000000000001,0.7191000000000001,0.15910000000000002,0.01,-0.007,0.001
1670268474.519985,-9.429,0.047,4.612,0.1097,0.7174,0.15610000000000002,0.032,-0.007,0.003
1670268474.559985,-9.285,-0.114,4.519,0.1111,0.7206,0.1589,0.032,-0.005,-0.004
1670268474.599985,-9.244,-0.056,4.615,0.1116,0.7170000000000001,0.15710000000000002,0.027,-0.02,-0.005
1670268474.6399848,-9.329,-0.093,4.599,0.1124,0.7205,0.1577,0.011,-0.015,-0.003
1670268474.679985,-9.351,-0.032,4.615,0.1115,0.7209,0.1565,0.013000000000000001,-0.014,0.0
1670268474.719985,-9.297,-0.114,4.679,0.1105,0.7187,0.1579,0.013000000000000001,-0.017,-0.014
1670268474.759985,-9.264,-0.008,4.652,0.1114,0.7183,0.15990000000000001,0.021,-0.021,-0.006
1670268474.799985,-9.345,-0.134,4.628,0.1107,0.7184,0.1583,0.015,-0.012,-0.003
1670268474.839985,-9.298,-0.061,4.596,0.1131,0.7202000000000001,0.157,0.025,-0.007,-0.007
1670268474.8799849,-9.319,-0.054,4.628,0.1097,0.7187,0.1572,0.022,-0.01,0.003
1670268474.919985,-9.293000000000001,-0.07100000000000001,4.5760000000000005,0.11120000000000001,0.7188,0.159,0.025,-0.01,0.001
1670268474.959985,-9.3,-0.04,4.6290000000000004,0.1106,0.7184,0.1554,0.031,-0.009000000000000001,-0.01
1670268474.999985,-9.357,-0.06,4.569,0.1102,0.7155,0.158,0.02,-0.012,-0.008
1670268475.039985,-9.335,-0.073,4.634,0.11120000000000001,0.7195,0.1607,0.015,-0.012,-0.002
1670268475.079985,-9.306000000000001,-0.07,4.62,0.11170000000000001,0.7180000000000001,0.1587,0.01,-0.018000000000000002,-0.006
1670268475.1199849,-9.344,-0.049,4.597,0.1075,0.7159,0.16490000000000002,0.019,-0.011,-0.007
1670268475.159985,-9.335,-0.069,4.557,0.1125,0.7189,0.1569,0.024,-0.016,-0.013000000000000001
1670268475.199985,-9.317,-0.061,4.609,0.11230000000000001,0.7188,0.1574,0.017,-0.016,-0.008
1670268475.239985,-9.316,-0.085,4.624,0.1111,0.7185,0.1577,0.016,-0.017,-0.011
1670268475.279985,-9.339,-0.096,4.64,0.1114,0.7209,0.1574,0.007,-0.018000000000000002,-0.004
1670268475.319984,-9.321,-0.084,4.606,0.1072,0.7221000000000001,0.1622,0.012,-0.009000000000000001,0.011
1670268475.359984,-9.385,0.026000000000000002,4.601,0.0998,0.7155,0.1632,0.031,-0.002,0.007
1670268475.399984,-9.359,-0.10300000000000001,4.591,0.11130000000000001,0.7204,0.1563,0.025,-0.007,-0.01
1670268475.4399838,-9.221,-0.045,4.636,0.1109,0.7179,0.1623,0.019,-0.016,-0.002
1670268475.479984,-9.349,-0.084,4.615,0.1092,0.7162000000000001,0.1575,0.0,-0.02,-0.004
1670268475.519984,-9.32,-0.045,4.612,0.1087,0.7164,0.14980000000000002,0.016,-0.012,-0.008
1670268475.559984,-9.327,-0.068,4.64,0.1078,0.7152000000000001,0.17020000000000002,0.01,-0.014,-0.014
1670268475.599984,-9.252,-0.113,4.615,0.1105,0.7179,0.1404,0.01,-0.011,-0.001
1670268475.639984,-9.32,-0.02,4.691,0.0989,0.7150000000000001,0.15910000000000002,0.009000000000000001,-0.011,-0.004
1670268475.6799839,-9.308,-0.066,4.61,0.1105,0.7232000000000001,0.155,0.018000000000000002,-0.007,-0.001
1670268475.719984,-9.33,-0.077,4.636,0.1119,0.7174,0.1575,0.019,-0.009000000000000001,0.003
1670268475.759984,-9.348,-0.068,4.633,0.1109,0.7169,0.1564,0.023,-0.014,-0.007
1670268475.799984,-9.336,-0.077,4.5760000000000005,0.1097,0.7198,0.15860000000000002,0.021,-0.013000000000000001,-0.003
1670268475.839984,-9.374,-0.073,4.569,0.11170000000000001,0.7188,0.1575,0.01,-0.014,-0.009000000000000001
1670268475.879984,-9.301,-0.074,4.6610000000000005,0.1111,0.7179,0.15710000000000002,0.008,-0.015,0.0
1670268475.9199839,-9.345,-0.073,4.563,0.11180000000000001,0.7207,0.1588,0.014,-0.011,-0.004
1670268475.959984,-9.305,-0.08700000000000001,4.679,0.11030000000000001,0.7201000000000001,0.1603,0.019,-0.014,-0.005
1670268475.999984,-9.333,-0.095,4.619,0.11080000000000001,0.7196,0.1602,0.011,-0.014,-0.005
1670268476.039984,-9.299,-0.088,4.609,0.10990000000000001,0.7209,0.1592,0.012,-0.019,-0.005
1670268476.079984,-9.33,-0.062,4.623,0.1109,0.7191000000000001,0.15660000000000002,0.012,-0.015,-0.001
1670268476.119984,-9.308,-0.088,4.628,0.1105,0.7177,0.1574,0.025,-0.018000000000000002,-0.008
1670268476.1599839,-9.33,-0.107,4.606,0.1072,0.7198,0.1568,0.022,-0.008,-0.002
1670268476.199984,-9.3,-0.229,4.666,0.1092,0.7174,0.15940000000000001,-0.027,0.023,0.022
1670268476.239984,-9.42,0.053,4.619,0.112,0.7199,0.1567,-0.044,0.037,0.042
1670268476.279984,-9.28,-0.068,4.457,0.1102,0.7172000000000001,0.1568,0.038,-0.009000000000000001,-0.01
1670268476.319984,-9.256,-0.002,4.555,0.1085,0.7198,0.1577,0.092,-0.059000000000000004,-0.056
1670268476.359983,-9.373,-0.083,4.559,0.1102,0.7202000000000001,0.1557,0.046,-0.047,-0.027
1670268476.399983,-9.282,-0.14200000000000002,4.642,0.11,0.7206,0.1607,0.018000000000000002,-0.034,-0.012
1670268476.439983,-9.328,-0.093,4.646,0.11130000000000001,0.7196,0.1602,0.003,-0.039,-0.02
1670268476.4799829,-9.279,-0.057,4.672,0.1115,0.7202000000000001,0.1567,0.01,-0.035,-0.013000000000000001
1670268476.519983,-9.308,-0.125,4.64,0.113,0.7217,0.16090000000000002,0.024,-0.033,-0.022
1670268476.559983,-9.279,-0.08700000000000001,4.6450000000000005,0.1125,0.7221000000000001,0.158,0.017,-0.025,-0.017
1670268476.599983,-9.255,-0.122,4.664,0.1085,0.7158,0.15910000000000002,0.019,-0.021,-0.004
1670268476.639983,-9.299,-0.096,4.67,0.11230000000000001,0.7227,0.15910000000000002,0.021,-0.023,-0.008
1670268476.679983,-9.299,-0.082,4.719,0.1075,0.7195,0.15710000000000002,0.021,-0.017,-0.01
1670268476.7199829,-9.272,-0.098,4.686,0.11,0.7198,0.1608,0.019,-0.015,-0.009000000000000001
1670268476.759983,-9.290000000000001,-0.116,4.654,0.11180000000000001,0.7214,0.15810000000000002,0.016,-0.013000000000000001,-0.005
1670268476.799983,-9.309000000000001,-0.089,4.63,0.1109,0.7206,0.1582,0.006,-0.004,-0.003
1670268476.839983,-9.287,-0.122,4.666,0.11030000000000001,0.7204,0.1618,0.013000000000000001,-0.008,-0.003
1670268476.879983,-9.305,-0.107,4.621,0.11080000000000001,0.7207,0.15660000000000002,0.014,-0.009000000000000001,-0.007
1670268476.919983,-9.3,-0.14300000000000002,4.597,0.1125,0.7218,0.1589,0.016,-0.015,-0.008
1670268476.9599829,-9.299,-0.098,4.684,0.11180000000000001,0.7194,0.1585,0.02,-0.016,-0.01
1670268476.999983,-9.284,-0.12,4.625,0.1081,0.7198,0.16040000000000001,0.025,-0.018000000000000002,-0.007
1670268477.039983,-9.259,-0.156,4.726,0.10940000000000001,0.7196,0.1617,0.028,-0.019,-0.002
1670268477.079983,-9.333,-0.13,4.671,0.1119,0.7202000000000001,0.1577,0.032,-0.011,0.016
1670268477.119983,-9.378,-0.029,4.713,0.1091,0.7177,0.1568,0.031,0.002,0.009000000000000001
1670268477.159983,-9.212,-0.138,4.67,0.1086,0.7176,0.158,0.031,-0.011,-0.003
1670268477.199983,-9.198,-0.07100000000000001,4.6370000000000005,0.10300000000000001,0.7199,0.167,0.019,-0.017,-0.004
1670268477.239983,-9.323,-0.091,4.654,0.111,0.7196,0.1582,0.014,-0.017,0.001
1670268477.279983,-9.323,-0.076,4.649,0.1109,0.7190000000000001,0.1583,0.017,-0.009000000000000001,0.0
1670268477.319983,-9.26,-0.10200000000000001,4.716,0.1107,0.7209,0.1605,0.012,-0.012,-0.003
1670268477.359983,-9.224,-0.04,4.721,0.1096,0.7186,0.1466,0.019,-0.018000000000000002,-0.003
1670268477.399982,-9.319,-0.14100000000000001,4.6530000000000005,0.1087,0.7199,0.1442,0.02,-0.007,-0.005
1670268477.439982,-9.287,-0.07,4.659,0.1085,0.7198,0.1552,0.03,-0.005,0.004
1670268477.479982,-9.314,-0.098,4.63,0.1126,0.7204,0.1666,0.023,-0.007,0.0
1670268477.5199819,-9.285,-0.052000000000000005,4.712,0.1126,0.7196,0.1607,0.022,-0.008,-0.005
1670268477.559982,-9.326,-0.096,4.621,0.112,0.7199,0.15910000000000002,0.022,-0.009000000000000001,-0.003
1670268477.599982,-9.282,-0.08,4.658,0.1121,0.7187,0.1613,0.024,-0.004,-0.003
1670268477.639982,-9.3,-0.058,4.672,0.1114,0.7180000000000001,0.15660000000000002,0.007,-0.01,0.0
1670268477.679982,-9.303,-0.07100000000000001,4.606,0.1075,0.7170000000000001,0.1593,0.016,-0.014,-0.007
1670268477.719982,-9.333,-0.076,4.62,0.1106,0.7173,0.1612,0.026000000000000002,-0.018000000000000002,-0.006
1670268477.7599819,-9.329,-0.076,4.616,0.11180000000000001,0.7179,0.1583,0.016,-0.02,-0.007
1670268477.799982,-9.304,-0.08600000000000001,4.6610000000000005,0.1092,0.7164,0.1587,0.018000000000000002,-0.019,-0.007
1670268477.839982,-9.285,-0.11900000000000001,4.688,0.1106,0.7208,0.16110000000000002,0.025,-0.014,-0.013000000000000001
1670268477.879982,-9.303,-0.096,4.6450000000000005,0.11120000000000001,0.7182000000000001,0.1569,0.022,-0.024,-0.008
1670268477.919982,-9.364,0.05,4.692,0.11030000000000001,0.7161000000000001,0.1588,0.032,-0.019,0.006
1670268477.959982,-9.3,-0.135,4.644,0.1105,0.7177,0.16,0.036000000000000004,-0.003,-0.007
1670268477.9999819,-9.233,-0.05,4.66,0.1105,0.7167,0.15860000000000002,0.032,-0.004,-0.012
1670268478.039982,-9.301,-0.123,4.566,0.1105,0.7190000000000001,0.15960000000000002,0.009000000000000001,-0.017,0.0
1670268478.079982,-9.357,-0.037,4.636,0.1111,0.7185,0.16,0.0,-0.01,0.0
1670268478.119982,-9.244,-0.063,4.692,0.111,0.7160000000000001,0.1573,0.014,-0.008,-0.012
1670268478.159982,-9.276,-0.07,4.606,0.1116,0.7180000000000001,0.16010000000000002,0.01,-0.02,-0.005
1670268478.199982,-9.318,-0.129,4.619,0.1106,0.7184,0.1593,0.018000000000000002,-0.014,-0.007
1670268478.239982,-9.299,-0.052000000000000005,4.63,0.1116,0.7193,0.159,0.017,-0.01,-0.009000000000000001
1670268478.279982,-9.284,-0.083,4.648,0.10940000000000001,0.7206,0.158,0.024,-0.018000000000000002,-0.006
1670268478.319982,-9.289,-0.08,4.634,0.1111,0.7171000000000001,0.158,0.022,-0.013000000000000001,-0.003
1670268478.359982,-9.349,-0.052000000000000005,4.602,0.10830000000000001,0.7178,0.15910000000000002,0.021,-0.015,-0.005
1670268478.399982,-9.334,-0.095,4.573,0.1134,0.7197,0.155,0.021,-0.007,-0.004
1670268478.439981,-9.322000000000001,-0.089,4.591,0.1086,0.7187,0.1579,0.026000000000000002,-0.012,-0.003
1670268478.479981,-9.283,-0.076,4.603,0.10840000000000001,0.7156,0.157,-0.001,-0.012,0.0
1670268478.519981,-9.306000000000001,-0.068,4.643,0.1114,0.7188,0.15960000000000002,0.009000000000000001,-0.013000000000000001,-0.004
1670268478.5599809,-9.32,-0.051000000000000004,4.636,0.1134,0.7202000000000001,0.1613,0.008,-0.018000000000000002,-0.009000000000000001
1670268478.599981,-9.314,-0.085,4.657,0.1085,0.7177,0.15810000000000002,0.012,-0.016,-0.004
1670268478.639981,-9.319,-0.089,4.651,0.1121,0.7194,0.1585,0.01,-0.012,-0.001
1670268478.679981,-9.303,-0.098,4.624,0.1125,0.7201000000000001,0.1592,0.015,-0.009000000000000001,-0.002
1670268478.719981,-9.257,-0.05,4.664,0.112,0.7190000000000001,0.1603,0.011,-0.016,-0.001
1670268478.759981,-9.306000000000001,-0.04,4.649,0.1126,0.7193,0.159,0.026000000000000002,-0.007,0.004
1670268478.7999809,-9.372,-0.128,4.586,0.111,0.7197,0.1583,0.031,-0.005,-0.011
1670268478.839981,-9.204,-0.066,4.621,0.1092,0.7166,0.1613,0.02,-0.014,-0.019
1670268478.879981,-9.307,-0.138,4.575,0.1072,0.7198,0.16,0.007,-0.024,-0.005
1670268478.919981,-9.335,-0.08600000000000001,4.633,0.112,0.7193,0.1608,0.001,-0.013000000000000001,-0.005
1670268478.959981,-9.332,-0.036000000000000004,4.7330000000000005,0.10990000000000001,0.7187,0.16790000000000002,0.013000000000000001,-0.018000000000000002,-0.022
1670268478.999981,-9.32,-0.158,4.588,0.113,0.7232000000000001,0.1582,0.019,-0.014,-0.005
1670268479.039981,-9.349,0.035,4.633,0.1102,0.7196,0.16,0.055,-0.002,-0.007
1670268479.079981,-9.348,-0.11,4.647,0.1114,0.7188,0.15960000000000002,0.04,-0.01,-0.011
1670268479.119981,-9.294,-0.089,4.649,0.1109,0.7155,0.1608,0.023,-0.013000000000000001,0.005
1670268479.159981,-9.304,-0.09,4.618,0.113,0.7188,0.1607,0.017,-0.028,-0.005
1670268479.199981,-9.294,-0.059000000000000004,4.633,0.098,0.7145,0.1665,0.009000000000000001,-0.036000000000000004,-0.012
1670268479.239981,-9.341000000000001,-0.093,4.643,0.11170000000000001,0.7185,0.17320000000000002,0.008,-0.033,0.0
1670268479.279981,-9.329,-0.068,4.61,0.1058,0.7157,0.15380000000000002,0.006,-0.025,-0.007
1670268479.319981,-9.293000000000001,-0.056,4.694,0.1072,0.7174,0.1938,0.02,-0.028,-0.014
1670268479.359981,-9.312,-0.067,4.647,0.1092,0.7180000000000001,0.15330000000000002,0.012,-0.023,-0.013000000000000001
1670268479.399981,-9.333,-0.08600000000000001,4.672,0.1071,0.7146,0.1572,0.01,-0.022,-0.009000000000000001
1670268479.439981,-9.302,-0.095,4.7010000000000005,0.11080000000000001,0.7168,0.1618,0.007,-0.025,-0.016
1670268479.399981,-9.268,-0.08,4.711,0.11080000000000001,0.7180000000000001,0.16040000000000001,0.011,-0.027,-0.015
1670268479.439981,-9.256,-0.157,4.676,0.11230000000000001,0.7196,0.1626,0.02,-0.028,-0.014
1670268479.47998,-9.34,-0.121,4.694,0.114,0.7214,0.1626,0.021,-0.026000000000000002,-0.008
1670268479.51998,-9.363,-0.04,4.7090000000000005,0.11,0.7198,0.16060000000000002,0.025,-0.018000000000000002,0.008
1670268479.55998,-9.199,-0.10400000000000001,4.67,0.11230000000000001,0.7187,0.15990000000000001,0.017,-0.003,-0.006
1670268479.5999799,-9.272,-0.092,4.621,0.11030000000000001,0.7198,0.1589,0.015,-0.015,-0.011
1670268479.63998,-9.313,-0.108,4.652,0.10880000000000001,0.7226,0.15940000000000001,0.008,-0.012,0.0
1670268479.67998,-9.315,-0.07100000000000001,4.676,0.10830000000000001,0.7197,0.1578,0.004,-0.01,0.0
1670268479.71998,-9.252,-0.178,4.698,0.11030000000000001,0.7193,0.16190000000000002,0.013000000000000001,-0.021,-0.016
1670268479.75998,-9.275,-0.012,4.713,0.11170000000000001,0.7180000000000001,0.1593,0.012,-0.016,0.0
1670268479.79998,-9.336,-0.153,4.611,0.111,0.7193,0.1603,0.016,-0.01,-0.001
1670268479.83998,-9.254,-0.069,4.642,0.1105,0.7214,0.16060000000000002,0.03,-0.005,0.008
1670268479.87998,-9.265,-0.094,4.702,0.1095,0.7174,0.15860000000000002,0.031,-0.008,-0.001
1670268479.91998,-9.311,-0.077,4.668,0.1114,0.7177,0.1613,0.03,-0.013000000000000001,0.005
1670268479.95998,-9.291,-0.08700000000000001,4.74,0.11120000000000001,0.7198,0.1615,0.026000000000000002,-0.011,0.002
1670268479.99998,-9.294,-0.099,4.656,0.113,0.7198,0.1615,0.024,-0.011,-0.004
1670268480.03998,-9.314,-0.083,4.663,0.1125,0.7185,0.16010000000000002,0.017,-0.008,0.0
1670268480.07998,-9.292,-0.095,4.664,0.10890000000000001,0.7201000000000001,0.164,0.01,-0.016,-0.005
1670268480.11998,-9.303,-0.055,4.631,0.11040000000000001,0.7207,0.1602,0.016,-0.013000000000000001,-0.005
1670268480.15998,-9.309000000000001,-0.07200000000000001,4.68,0.11230000000000001,0.7192000000000001,0.1582,0.014,-0.009000000000000001,-0.004
1670268480.19998,-9.258000000000001,-0.116,4.6770000000000005,0.10990000000000001,0.7193,0.1574,0.017,-0.015,-0.009000000000000001
1670268480.23998,-9.261000000000001,-0.064,4.681,0.1106,0.7195,0.1612,0.017,-0.008,-0.004
1670268480.27998,-9.307,-0.038,4.714,0.11170000000000001,0.7207,0.161,0.033,-0.009000000000000001,0.01
1670268480.31998,-9.308,-0.10200000000000001,4.688,0.11120000000000001,0.7183,0.16040000000000001,0.024,0.004,0.0
1670268480.35998,-9.229000000000001,-0.031,4.626,0.11230000000000001,0.7169,0.1582,0.023,-0.009000000000000001,-0.008
1670268480.39998,-9.283,-0.093,4.636,0.1086,0.7185,0.1646,0.014,-0.003,0.0
1670268480.43998,-9.321,-0.107,4.638,0.10990000000000001,0.7164,0.1593,0.006,-0.006,0.001
1670268480.47998,-9.290000000000001,-0.067,4.681,0.1107,0.7193,0.15990000000000001,0.004,-0.007,-0.011
1670268480.519979,-9.274000000000001,-0.128,4.668,0.11270000000000001,0.7203,0.16090000000000002,0.0,-0.014,0.001
1670268480.559979,-9.346,-0.05,4.602,0.11030000000000001,0.7182000000000001,0.16040000000000001,0.016,-0.005,0.0
1670268480.599979,-9.336,-0.047,4.667,0.1134,0.7195,0.158,0.017,-0.008,-0.003
1670268480.639979,-9.246,-0.079,4.6850000000000005,0.10890000000000001,0.7176,0.1589,0.027,-0.014,-0.003
1670268480.679979,-9.311,-0.083,4.619,0.1105,0.7165,0.15910000000000002,0.024,-0.009000000000000001,0.009000000000000001
1670268480.719979,-9.323,-0.045,4.697,0.1134,0.7201000000000001,0.1563,0.024,-0.009000000000000001,0.0
1670268480.759979,-9.287,-0.085,4.689,0.1139,0.7186,0.15810000000000002,0.016,-0.012,0.001
1670268480.799979,-9.293000000000001,-0.082,4.613,0.11270000000000001,0.7193,0.1568,0.013000000000000001,-0.009000000000000001,0.003
1670268480.839979,-9.308,-0.049,4.591,0.1095,0.7205,0.1602,0.014,-0.008,-0.003
1670268480.879979,-9.327,-0.076,4.654,0.10500000000000001,0.7180000000000001,0.159,0.016,-0.008,-0.007
1670268480.919979,-9.302,-0.059000000000000004,4.674,0.1111,0.7176,0.1584,0.012,-0.008,-0.005
1670268480.959979,-9.273,-0.07100000000000001,4.625,0.11230000000000001,0.7215,0.158,0.004,-0.012,-0.005
1670268480.999979,-9.269,-0.135,4.613,0.1111,0.7182000000000001,0.1585,0.01,-0.023,-0.008
1670268481.039979,-9.373,-0.08700000000000001,4.703,0.1111,0.7195,0.14850000000000002,0.016,-0.017,0.009000000000000001
1670268481.079979,-9.403,0.028,4.588,0.11230000000000001,0.7182000000000001,0.17850000000000002,0.025,-0.006,0.001
1670268481.119979,-9.245000000000001,-0.077,4.573,0.1076,0.7177,0.16640000000000002,0.032,-0.014,-0.014
1670268481.159979,-9.314,-0.098,4.5920000000000005,0.1111,0.7187,0.1419,0.021,-0.019,-0.007
1670268481.199979,-9.332,-0.052000000000000005,4.646,0.1119,0.7188,0.16010000000000002,0.006,-0.018000000000000002,-0.007
1670268481.239979,-9.293000000000001,-0.11,4.643,0.1116,0.7193,0.1607,0.019,-0.016,-0.017
1670268481.279979,-9.279,-0.023,4.715,0.1126,0.7182000000000001,0.1626,0.007,-0.019,-0.009000000000000001
1670268481.319979,-9.323,-0.146,4.66,0.1062,0.7189,0.1632,0.019,-0.015,-0.005
1670268481.359979,-9.271,-0.055,4.679,0.1125,0.7202000000000001,0.16060000000000002,0.011,-0.009000000000000001,-0.006
1670268481.399979,-9.305,-0.1,4.619,0.11030000000000001,0.7186,0.16110000000000002,0.019,-0.013000000000000001,0.0
1670268481.439979,-9.291,-0.053,4.679,0.1114,0.7193,0.16010000000000002,0.015,-0.013000000000000001,0.0
1670268481.479979,-9.315,-0.055,4.627,0.1136,0.7201000000000001,0.1583,0.027,-0.012,0.0
1670268481.519979,-9.288,-0.08,4.625,0.11130000000000001,0.7184,0.15940000000000001,0.03,-0.007,-0.002
1670268481.559978,-9.33,-0.08600000000000001,4.628,0.1091,0.7190000000000001,0.15940000000000001,0.016,-0.014,0.002
1670268481.599978,-9.276,-0.067,4.628,0.1125,0.7176,0.1615,0.008,-0.005,0.0
1670268481.639978,-9.311,-0.074,4.628,0.10690000000000001,0.7172000000000001,0.1587,0.012,-0.011,-0.002
1670268481.679978,-9.311,-0.067,4.659,0.1109,0.7168,0.1582,0.01,-0.014,-0.006
1670268481.719978,-9.33,-0.054,4.634,0.1105,0.7188,0.15960000000000002,0.022,-0.016,-0.005
1670268481.759978,-9.328,-0.084,4.611,0.11280000000000001,0.7162000000000001,0.16010000000000002,0.017,-0.019,-0.002
1670268481.799978,-9.346,-0.074,4.647,0.1106,0.7173,0.15860000000000002,0.034,0.0,-0.002
1670268481.839978,-9.279,-0.167,4.68,0.1124,0.7172000000000001,0.1582,-0.012,0.016,0.028
1670268481.879978,-9.346,0.083,4.581,0.1134,0.7201000000000001,0.15810000000000002,0.0,0.011,0.032
1670268481.919978,-9.369,-0.058,4.538,0.11280000000000001,0.7173,0.15940000000000001,0.053,0.003,-0.01
1670268481.959978,-9.271,-0.002,4.58,0.114,0.7188,0.161,0.07,-0.021,-0.034
1670268481.999978,-9.335,-0.127,4.522,0.11170000000000001,0.7162000000000001,0.16,0.044,-0.046,-0.025
1670268482.039978,-9.369,-0.043000000000000003,4.601,0.11120000000000001,0.7183,0.15940000000000001,0.021,-0.043000000000000003,-0.015
1670268482.079978,-9.311,-0.028,4.711,0.11410000000000001,0.7193,0.159,0.016,-0.032,-0.017
1670268482.119978,-9.276,-0.084,4.688,0.1105,0.7179,0.1585,0.014,-0.038,-0.014
1670268482.159978,-9.323,-0.041,4.636,0.108,0.7164,0.1618,0.032,-0.021,-0.017
1670268482.199978,-9.274000000000001,-0.044,4.7010000000000005,0.11280000000000001,0.7185,0.1602,0.031,-0.018000000000000002,-0.009000000000000001
1670268482.239978,-9.259,-0.064,4.688,0.1087,0.7156,0.1621,0.023,-0.016,-0.003
1670268482.279978,-9.263,-0.067,4.721,0.11170000000000001,0.7196,0.15960000000000002,0.012,-0.016,0.006
1670268482.319978,-9.296,-0.034,4.655,0.1149,0.7164,0.16090000000000002,0.018000000000000002,-0.017,-0.001
1670268482.359978,-9.297,-0.048,4.691,0.11170000000000001,0.7162000000000001,0.1605,0.023,-0.008,-0.006
1670268482.399978,-9.283,-0.067,4.625,0.10990000000000001,0.7160000000000001,0.15960000000000002,0.013000000000000001,-0.001,-0.001
1670268482.439978,-9.276,-0.054,4.651,0.1081,0.7203,0.1613,0.005,0.0,0.003
1670268482.4799778,-9.312,-0.04,4.6370000000000005,0.1115,0.7170000000000001,0.16110000000000002,0.006,-0.001,-0.001
1670268482.519978,-9.325000000000001,-0.053,4.655,0.11330000000000001,0.7164,0.1613,0.005,-0.007,-0.007
1670268482.559978,-9.302,-0.055,4.604,0.1136,0.7183,0.1602,-0.001,-0.005,-0.003
1670268482.599977,-9.296,-0.079,4.64,0.11230000000000001,0.7183,0.1602,0.009000000000000001,-0.003,0.001
1670268482.639977,-9.284,-0.047,4.6370000000000005,0.11030000000000001,0.7195,0.161,0.005,-0.011,-0.008
1670268482.679977,-9.332,-0.067,4.6610000000000005,0.11180000000000001,0.7188,0.16160000000000002,0.013000000000000001,-0.002,-0.004
1670268482.719977,-9.272,-0.10200000000000001,4.626,0.1085,0.7204,0.16040000000000001,0.003,-0.015,-0.009000000000000001
1670268482.759977,-9.366,-0.099,4.654,0.1101,0.7187,0.16040000000000001,0.005,-0.012,0.014
1670268482.799977,-9.373,0.028,4.666,0.1136,0.7185,0.15990000000000001,0.01,-0.006,-0.007
1670268482.839977,-9.279,-0.111,4.613,0.10940000000000001,0.7168,0.1593,0.015,-0.015,-0.023
1670268482.879977,-9.244,-0.078,4.581,0.1097,0.7159,0.1584,0.01,-0.026000000000000002,-0.014
1670268482.919977,-9.327,-0.125,4.605,0.10740000000000001,0.7204,0.1545,0.0,-0.024,-0.009000000000000001
1670268482.959977,-9.318,-0.079,4.6850000000000005,0.1086,0.7191000000000001,0.15810000000000002,0.017,-0.018000000000000002,-0.012
1670268482.999977,-9.261000000000001,-0.053,4.7010000000000005,0.11040000000000001,0.7164,0.16870000000000002,0.008,-0.018000000000000002,-0.007
1670268483.039977,-9.354000000000001,-0.13,4.6850000000000005,0.1102,0.7196,0.16640000000000002,0.022,-0.015,-0.007
1670268483.079977,-9.293000000000001,-0.056,4.6290000000000004,0.1109,0.7188,0.16110000000000002,0.025,-0.009000000000000001,-0.002
1670268483.119977,-9.251,-0.065,4.674,0.1125,0.7195,0.15990000000000001,0.024,-0.013000000000000001,-0.006
1670268483.159977,-9.277000000000001,-0.105,4.612,0.1092,0.7170000000000001,0.1587,0.024,-0.012,-0.002
1670268483.199977,-9.324,-0.042,4.648,0.10880000000000001,0.7189,0.15910000000000002,0.024,-0.012,0.0
1670268483.239977,-9.282,-0.095,4.616,0.1114,0.7176,0.1625,0.02,-0.01,-0.003
1670268483.2799768,-9.302,-0.07100000000000001,4.656,0.11320000000000001,0.7181000000000001,0.1595,0.007,-0.01,-0.005
1670268483.319977,-9.299,-0.053,4.624,0.1126,0.7204,0.1632,0.008,-0.01,-0.003
1670268483.359977,-9.294,-0.091,4.646,0.11130000000000001,0.7204,0.1626,0.007,-0.01,-0.009000000000000001
1670268483.399977,-9.312,-0.079,4.6770000000000005,0.11,0.7202000000000001,0.1607,0.005,-0.01,-0.003
1670268483.439977,-9.301,-0.08,4.724,0.11030000000000001,0.7188,0.1595,0.01,-0.012,-0.006
1670268483.479977,-9.293000000000001,-0.066,4.649,0.11230000000000001,0.7197,0.1585,0.011,-0.011,-0.007
1670268483.5199769,-9.289,-0.095,4.604,0.1114,0.7182000000000001,0.1583,0.021,-0.018000000000000002,-0.007
1670268483.559977,-9.279,-0.134,4.628,0.1114,0.7198,0.162,0.025,-0.018000000000000002,-0.01
1670268483.599977,-9.335,-0.097,4.706,0.1097,0.7175,0.1608,0.017,-0.014,-0.007
1670268483.639977,-9.364,-0.018000000000000002,4.676,0.1119,0.7192000000000001,0.162,0.026000000000000002,-0.005,0.005
1670268483.679977,-9.245000000000001,-0.148,4.601,0.1105,0.7215,0.1608,0.023,-0.003,-0.002
1670268483.719976,-9.237,-0.077,4.575,0.1097,0.7187,0.16010000000000002,0.021,-0.01,-0.013000000000000001
1670268483.759976,-9.327,-0.09,4.606,0.1102,0.7188,0.159,0.015,-0.016,-0.006
1670268483.799976,-9.324,-0.08700000000000001,4.666,0.11130000000000001,0.7182000000000001,0.158,0.008,-0.009000000000000001,0.0
1670268483.839976,-9.253,-0.149,4.66,0.1106,0.7199,0.158,0.018000000000000002,-0.016,-0.009000000000000001
1670268483.879976,-9.242,-0.04,4.699,0.1116,0.7189,0.1595,0.012,-0.024,-0.006
1670268483.919976,-9.351,-0.17200000000000001,4.621,0.1111,0.7195,0.1646,0.016,-0.009000000000000001,-0.005
1670268483.959976,-9.287,-0.049,4.654,0.1072,0.7218,0.159,0.018000000000000002,-0.009000000000000001,-0.001
1670268483.999976,-9.275,-0.099,4.622,0.1121,0.7228,0.16090000000000002,0.025,-0.011,0.0
1670268484.039976,-9.329,-0.083,4.66,0.1131,0.7176,0.15990000000000001,0.021,-0.009000000000000001,-0.002
1670268484.0799758,-9.338000000000001,-0.076,4.597,0.1107,0.7204,0.1585,0.025,-0.007,-0.011
1670268484.119976,-9.333,-0.079,4.621,0.11280000000000001,0.7215,0.1579,0.015,-0.009000000000000001,-0.004
1670268484.159976,-9.32,-0.08700000000000001,4.612,0.0978,0.7148,0.16570000000000001,0.006,-0.016,-0.006
1670268484.199976,-9.297,-0.068,4.654,0.1105,0.7190000000000001,0.158,0.008,-0.01,0.003
1670268484.239976,-9.305,-0.078,4.609,0.111,0.7184,0.1583,0.007,-0.011,-0.004
1670268484.279976,-9.324,-0.095,4.63,0.11220000000000001,0.7184,0.1569,0.017,-0.014,-0.005
1670268484.3199759,-9.352,-0.108,4.597,0.11470000000000001,0.7179,0.1583,0.022,-0.013000000000000001,-0.005
1670268484.359976,-9.291,-0.052000000000000005,4.63,0.11370000000000001,0.7227,0.1575,0.02,-0.017,-0.01
1670268484.399976,-9.309000000000001,-0.105,4.6450000000000005,0.1115,0.7178,0.1618,0.017,-0.019,0.0
1670268484.439976,-9.397,-0.11900000000000001,4.594,0.11080000000000001,0.7199,0.15910000000000002,0.02,-0.014,0.014
1670268484.479976,-9.393,-0.021,4.681,0.11170000000000001,0.7202000000000001,0.1575,0.024,-0.002,-0.001
1670268484.519976,-9.221,-0.092,4.589,0.1086,0.7198,0.15960000000000002,0.022,-0.013000000000000001,-0.003
1670268484.5599759,-9.284,-0.105,4.594,0.1102,0.7166,0.15990000000000001,0.009000000000000001,-0.01,0.003
1670268484.599976,-9.313,-0.084,4.551,0.11380000000000001,0.7210000000000001,0.1583,0.005,-0.009000000000000001,0.005
1670268484.639976,-9.369,-0.043000000000000003,4.641,0.1058,0.7146,0.16820000000000002,0.037,0.001,-0.006
1670268484.679976,-9.269,-0.08700000000000001,4.63,0.11,0.7170000000000001,0.1632,0.047,-0.009000000000000001,-0.008
1670268484.719976,-9.288,-0.034,4.5760000000000005,0.1102,0.7186,0.15910000000000002,0.031,-0.017,-0.009000000000000001
1670268484.759975,-9.355,-0.147,4.595,0.1078,0.7182000000000001,0.15430000000000002,0.008,-0.02,-0.008
1670268484.799975,-9.266,-0.07,4.554,0.11410000000000001,0.7178,0.1443,0.007,-0.02,0.0
1670268484.839975,-9.264,-0.093,4.5920000000000005,0.1019,0.7159,0.1501,-0.005,-0.032,-0.003
1670268484.879975,-9.342,-0.002,4.595,0.11180000000000001,0.7188,0.16570000000000001,0.014,-0.021,-0.002
1670268484.919975,-9.312,-0.099,4.633,0.1109,0.7184,0.1608,0.025,-0.02,-0.014
1670268484.959975,-9.311,-0.091,4.628,0.1091,0.7218,0.1603,0.026000000000000002,-0.02,-0.013000000000000001
1670268484.999975,-9.293000000000001,-0.111,4.64,0.1109,0.7193,0.1593,0.012,-0.024,-0.005
1670268485.039975,-9.315,-0.076,4.647,0.112,0.7204,0.15990000000000001,0.009000000000000001,-0.021,-0.006
1670268485.079975,-9.293000000000001,-0.099,4.651,0.1061,0.7205,0.1625,0.018000000000000002,-0.023,-0.011
1670268485.1199749,-9.303,-0.081,4.692,0.1139,0.7204,0.16040000000000001,0.02,-0.018000000000000002,-0.004
1670268485.159975,-9.305,-0.08700000000000001,4.622,0.10880000000000001,0.7207,0.16110000000000002,0.02,-0.016,0.0
1670268485.199975,-9.242,-0.131,4.586,0.1097,0.7226,0.1597,0.017,-0.013000000000000001,-0.003
1670268485.239975,-9.349,-0.084,4.657,0.1134,0.7177,0.15960000000000002,0.019,-0.014,0.003
1670268485.279975,-9.417,-0.002,4.678,0.1119,0.7216,0.16010000000000002,0.037,-0.007,0.012
1670268485.319975,-9.258000000000001,-0.07,4.663,0.1102,0.7194,0.16,0.03,-0.005,-0.004
1670268485.3599749,-9.225,-0.08,4.62,0.11280000000000001,0.7220000000000001,0.1573,0.023,-0.009000000000000001,-0.013000000000000001
1670268485.399975,-9.363,-0.073,4.634,0.1091,0.7192000000000001,0.1578,0.012,-0.014,-0.004
1670268485.439975,-9.319,-0.056,4.642,0.10690000000000001,0.7173,0.159,0.005,-0.01,-0.004
1670268485.479975,-9.284,-0.146,4.7,0.11130000000000001,0.7209,0.1587,0.015,-0.019,-0.014
1670268485.519975,-9.296,-0.032,4.706,0.11040000000000001,0.7184,0.15910000000000002,0.003,-0.017,-0.004
1670268485.559975,-9.312,-0.169,4.597,0.1115,0.7176,0.1583,0.015,-0.008,0.001
1670268485.5999749,-9.3,-0.035,4.6610000000000005,0.1092,0.7218,0.1593,0.022,0.004,-0.002
1670268485.639975,-9.290000000000001,-0.079,4.6370000000000005,0.10840000000000001,0.7185,0.1607,0.034,-0.003,0.007
1670268485.679975,-9.33,-0.094,4.579,0.1067,0.7158,0.15960000000000002,0.025,-0.011,0.006
1670268485.719975,-9.343,-0.032,4.623,0.11130000000000001,0.7190000000000001,0.1589,0.028,-0.008,0.002
1670268485.759975,-9.355,-0.049,4.631,0.1119,0.7174,0.1589,0.029,-0.005,-0.005
1670268485.799974,-9.326,-0.073,4.577,0.1114,0.7166,0.16,0.015,-0.008,0.001
1670268485.839974,-9.322000000000001,-0.038,4.571,0.1125,0.7166,0.159,0.018000000000000002,-0.012,-0.001
1670268485.879974,-9.303,-0.058,4.652,0.1116,0.7184,0.1588,0.024,-0.019,-0.006
1670268485.9199739,-9.32,-0.046,4.649,0.11220000000000001,0.7171000000000001,0.16160000000000002,0.012,-0.014,-0.007
1670268485.959974,-9.301,-0.076,4.67,0.1109,0.7197,0.1607,0.02,-0.021,-0.007
1670268485.999974,-9.288,-0.096,4.6370000000000005,0.10940000000000001,0.7164,0.1605,0.009000000000000001,-0.024,-0.008
1670268486.039974,-9.304,-0.07,4.7010000000000005,0.114,0.7177,0.1608,0.01,-0.019,-0.001
1670268486.079974,-9.386000000000001,0.052000000000000005,4.646,0.1129,0.7188,0.1578,0.028,-0.008,0.003
1670268486.119974,-9.293000000000001,-0.114,4.625,0.109,0.7185,0.1585,0.029,-0.012,-0.012
1670268486.1599739,-9.253,-0.037,4.624,0.1114,0.7176,0.15940000000000001,0.017,-0.013000000000000001,-0.008
1670268486.199974,-9.33,-0.097,4.591,0.113,0.7162000000000001,0.1617,0.006,-0.01,0.0
1670268486.239974,-9.334,-0.052000000000000005,4.609,0.1119,0.7188,0.15960000000000002,0.014,-0.008,0.001
1670268486.279974,-9.316,-0.058,4.69,0.11220000000000001,0.7177,0.1585,0.019,-0.011,-0.014
1670268486.319974,-9.245000000000001,-0.067,4.6530000000000005,0.10930000000000001,0.7182000000000001,0.1588,0.019,-0.017,-0.009000000000000001
1670268486.359974,-9.332,-0.11,4.652,0.11230000000000001,0.7174,0.1603,0.014,-0.014,0.002
1670268486.3999739,-9.293000000000001,-0.031,4.644,0.0999,0.7128,0.16640000000000002,0.023,-0.011,-0.003
1670268486.439974,-9.269,-0.074,4.627,0.1056,0.7198,0.15810000000000002,0.026000000000000002,-0.012,0.001
1670268486.479974,-9.275,-0.068,4.643,0.1114,0.7201000000000001,0.1582,0.02,-0.014,0.0
1670268486.519974,-9.341000000000001,-0.026000000000000002,4.66,0.11130000000000001,0.7168,0.16110000000000002,0.032,-0.012,-0.011
1670268486.559974,-9.34,-0.056,4.5760000000000005,0.112,0.7193,0.15940000000000001,0.017,-0.007,0.0
1670268486.599974,-9.308,-0.074,4.604,0.11080000000000001,0.7156,0.1452,0.018000000000000002,-0.017,-0.007
1670268486.6399739,-9.3,-0.069,4.644,0.10550000000000001,0.7182000000000001,0.16540000000000002,0.009000000000000001,-0.015,0.0
1670268486.679974,-9.327,-0.052000000000000005,4.619,0.10930000000000001,0.7162000000000001,0.164,0.01,-0.012,-0.003
1670268486.719974,-9.285,-0.064,4.658,0.11030000000000001,0.7182000000000001,0.1612,0.013000000000000001,-0.013000000000000001,-0.011
1670268486.759974,-9.313,-0.041,4.627,0.1114,0.7185,0.1437,0.014,-0.016,-0.009000000000000001
1670268486.799974,-9.239,-0.08,4.61,0.11030000000000001,0.7190000000000001,0.1607,0.005,-0.021,-0.008
1670268486.839973,-9.309000000000001,-0.027,4.643,0.1114,0.7173,0.16040000000000001,0.007,-0.014,-0.001
1670268486.879973,-9.359,-0.069,4.682,0.11130000000000001,0.7173,0.1617,0.027,-0.001,0.005
1670268486.919973,-9.222,-0.05,4.625,0.10940000000000001,0.7161000000000001,0.1621,0.035,-0.003,-0.018000000000000002
1670268486.9599729,-9.257,-0.10400000000000001,4.6000000000000005,0.11130000000000001,0.7189,0.15960000000000002,0.026000000000000002,-0.013000000000000001,-0.015
1670268486.999973,-9.333,-0.09,4.67,0.1092,0.7189,0.16160000000000002,0.004,-0.007,-0.003
1670268487.039973,-9.311,-0.008,4.675,0.1101,0.7183,0.16160000000000002,-0.002,-0.015,-0.003
1670268487.079973,-9.339,-0.14200000000000002,4.63,0.11080000000000001,0.7195,0.159,0.017,-0.014,-0.017
1670268487.119973,-9.358,-0.019,4.613,0.10940000000000001,0.7187,0.157,0.014,-0.016,-0.011
1670268487.159973,-9.298,-0.09,4.616,0.11130000000000001,0.7209,0.15940000000000001,0.004,-0.009000000000000001,0.003
1670268487.1999729,-9.282,-0.067,4.613,0.1105,0.7195,0.15940000000000001,0.025,-0.014,-0.006
1670268487.239973,-9.281,-0.07,4.657,0.11170000000000001,0.7186,0.1607,0.016,-0.016,-0.001
1670268487.279973,-9.304,-0.073,4.633,0.1101,0.7223,0.16140000000000002,0.023,-0.021,-0.005
1670268487.319973,-9.336,-0.074,4.586,0.1106,0.7196,0.15760000000000002,0.022,-0.015,-0.01
1670268487.359973,-9.298,-0.073,4.6450000000000005,0.11030000000000001,0.7183,0.1587,0.017,-0.021,-0.004
1670268487.399973,-9.33,-0.093,4.594,0.1111,0.7215,0.1618,0.007,-0.018000000000000002,-0.008
1670268487.4399729,-9.339,-0.07100000000000001,4.673,0.10540000000000001,0.7210000000000001,0.15940000000000001,0.001,0.002,0.003
1670268487.479973,-9.239,-0.154,4.676,0.10890000000000001,0.7191000000000001,0.1552,-0.035,0.021,0.021
1670268487.519973,-9.326,0.002,4.582,0.1143,0.7181000000000001,0.1607,-0.001,0.003,-0.003
1670268487.559973,-9.263,-0.07100000000000001,4.621,0.1092,0.7202000000000001,0.15990000000000001,0.057,-0.038,-0.028
1670268487.599973,-9.279,-0.149,4.61,0.1106,0.7173,0.158,0.051000000000000004,-0.044,-0.032
1670268487.639973,-9.342,-0.147,4.698,0.1111,0.7193,0.15960000000000002,0.007,-0.011,0.004
1670268487.679973,-9.381,-0.041,4.6850000000000005,0.11,0.7180000000000001,0.1583,0.019,-0.019,0.0
1670268487.719973,-9.248,-0.09,4.622,0.1111,0.7200000000000001,0.1608,0.02,-0.019,-0.008
1670268487.759973,-9.225,-0.059000000000000004,4.616,0.111,0.7192000000000001,0.156,0.022,-0.032,-0.017
1670268487.799973,-9.318,-0.121,4.66,0.1102,0.7181000000000001,0.15910000000000002,0.009000000000000001,-0.026000000000000002,-0.008
1670268487.839973,-9.324,-0.084,4.675,0.11120000000000001,0.7212000000000001,0.1593,0.017,-0.017,-0.011
1670268487.879972,-9.295,-0.17500000000000002,4.74,0.1107,0.7211000000000001,0.16,0.007,-0.021,-0.012
1670268487.919972,-9.272,-0.021,4.724,0.11330000000000001,0.7206,0.16040000000000001,0.015,-0.02,-0.009000000000000001
1670268487.959972,-9.269,-0.157,4.704,0.10930000000000001,0.7174,0.16060000000000002,0.023,-0.012,-0.007
1670268487.9999719,-9.282,-0.056,4.658,0.1107,0.7199,0.1593,0.024,-0.009000000000000001,0.0
1670268488.039972,-9.262,-0.101,4.67,0.11030000000000001,0.7159,0.16,0.024,-0.012,-0.001
1670268488.079972,-9.275,-0.088,4.6770000000000005,0.1111,0.7204,0.1618,0.018000000000000002,-0.008,-0.001
1670268488.119972,-9.288,-0.096,4.6530000000000005,0.10890000000000001,0.7198,0.1585,0.017,-0.006,-0.001
1670268488.159972,-9.272,-0.092,4.678,0.09920000000000001,0.7165,0.1632,0.011,0.001,-0.006
1670268488.199972,-9.291,-0.10400000000000001,4.639,0.11130000000000001,0.7213,0.15940000000000001,0.005,0.001,-0.002
1670268488.2399719,-9.314,-0.08600000000000001,4.624,0.1111,0.7189,0.1558,-0.001,-0.001,-0.001
1670268488.279972,-9.332,-0.074,4.643,0.1073,0.7204,0.1585,0.006,-0.004,-0.014
1670268488.319972,-9.290000000000001,-0.08700000000000001,4.6690000000000005,0.1139,0.7179,0.16140000000000002,0.005,-0.011,-0.014
1670268488.359972,-9.255,-0.186,4.623,0.10890000000000001,0.7198,0.161,0.003,-0.022,-0.007
1670268488.399972,-9.33,-0.098,4.671,0.108,0.7186,0.16040000000000001,0.001,-0.018000000000000002,0.006
1670268488.439972,-9.349,-0.026000000000000002,4.612,0.10640000000000001,0.7182000000000001,0.1615,0.031,-0.009000000000000001,-0.006
1670268488.479972,-9.287,-0.165,4.623,0.1087,0.7163,0.1578,0.031,-0.012,-0.008
1670268488.519972,-9.24,-0.094,4.628,0.1101,0.7181000000000001,0.17700000000000002,0.018000000000000002,-0.02,-0.003
1670268488.559972,-9.311,-0.111,4.666,0.10590000000000001,0.7186,0.1486,0.016,-0.021,-0.006
1670268488.599972,-9.281,-0.128,4.689,0.1102,0.7190000000000001,0.1517,0.016,-0.011,-0.003
1670268488.639972,-9.236,-0.093,4.688,0.1124,0.7187,0.16110000000000002,0.012,-0.015,-0.001
1670268488.679972,-9.305,-0.147,4.64,0.10700000000000001,0.7201000000000001,0.16090000000000002,0.029,-0.025,-0.008
1670268488.719972,-9.305,-0.062,4.652,0.1101,0.7187,0.1575,0.032,-0.01,0.0
1670268488.759972,-9.256,-0.106,4.647,0.11670000000000001,0.7179,0.1593,0.027,-0.011,0.007
1670268488.799972,-9.306000000000001,-0.07200000000000001,4.648,0.1095,0.7209,0.1607,0.021,-0.007,0.007
1670268488.839972,-9.314,-0.064,4.635,0.11040000000000001,0.7179,0.1595,0.031,-0.011,0.0
1670268488.879972,-9.318,-0.093,4.611,0.1092,0.7187,0.16060000000000002,0.03,-0.01,0.005
1670268488.919971,-9.3,-0.081,4.621,0.11130000000000001,0.7186,0.15860000000000002,0.018000000000000002,-0.012,0.0
1670268488.959971,-9.3,-0.053,4.673,0.10990000000000001,0.7173,0.15940000000000001,0.014,-0.007,0.005
1670268488.999971,-9.323,-0.032,4.662,0.1092,0.7191000000000001,0.1632,0.017,-0.014,-0.005
1670268489.0399709,-9.332,-0.083,4.633,0.1125,0.7173,0.16110000000000002,0.017,-0.012,-0.005
1670268489.079971,-9.276,-0.101,4.682,0.1126,0.7190000000000001,0.16140000000000002,0.008,-0.007,-0.004
1670268489.119971,-9.264,-0.064,4.686,0.1119,0.7190000000000001,0.16110000000000002,0.01,-0.017,-0.002
1670268489.159971,-9.329,-0.028,4.59,0.11130000000000001,0.7183,0.1585,0.027,-0.017,0.006
1670268489.199971,-9.341000000000001,-0.137,4.619,0.10830000000000001,0.7190000000000001,0.15940000000000001,0.027,-0.007,0.001
1670268489.239971,-9.237,-0.033,4.618,0.11,0.7182000000000001,0.161,0.025,-0.009000000000000001,-0.013000000000000001
1670268489.279971,-9.32,-0.10200000000000001,4.61,0.1097,0.7204,0.1588,0.017,-0.011,-0.001
1670268489.319971,-9.334,-0.053,4.667,0.1119,0.7184,0.16010000000000002,0.013000000000000001,-0.016,-0.003
1670268489.359971,-9.309000000000001,-0.051000000000000004,4.625,0.10940000000000001,0.7170000000000001,0.16,0.014,-0.014,-0.016
1670268489.399971,-9.249,-0.098,4.69,0.10940000000000001,0.7191000000000001,0.1631,0.01,-0.017,-0.004
1670268489.439971,-9.321,-0.08600000000000001,4.674,0.1126,0.7187,0.1633,0.021,-0.014,-0.009000000000000001
1670268489.479971,-9.285,-0.041,4.7,0.11270000000000001,0.7169,0.15910000000000002,0.013000000000000001,-0.005,-0.009000000000000001
1670268489.519971,-9.284,-0.084,4.62,0.11330000000000001,0.7196,0.16240000000000002,0.021,-0.008,0.0
1670268489.559971,-9.269,-0.079,4.671,0.113,0.7213,0.1617,0.015,-0.007,0.001
1670268489.599971,-9.332,-0.034,4.713,0.1111,0.7183,0.1617,0.018000000000000002,-0.011,0.0
1670268489.639971,-9.327,-0.078,4.566,0.11170000000000001,0.7166,0.1636,0.026000000000000002,-0.01,-0.002
1670268489.679971,-9.318,-0.08,4.621,0.11080000000000001,0.7191000000000001,0.1584,0.015,-0.012,-0.004
1670268489.719971,-9.291,-0.06,4.634,0.1106,0.7183,0.16570000000000001,0.013000000000000001,-0.012,-0.003
1670268489.759971,-9.318,-0.07,4.683,0.108,0.7169,0.1615,0.013000000000000001,-0.014,-0.003
1670268489.799971,-9.332,-0.05,4.647,0.11220000000000001,0.7199,0.16240000000000002,0.019,-0.007,-0.008
1670268489.839971,-9.32,-0.06,4.6290000000000004,0.1111,0.7188,0.1579,0.021,-0.003,-0.004
1670268489.879971,-9.236,-0.10200000000000001,4.61,0.1119,0.7175,0.1575,0.019,-0.024,-0.002
1670268489.919971,-9.314,-0.115,4.635,0.10690000000000001,0.7163,0.1588,0.026000000000000002,-0.022,0.003
1670268489.95997,-9.379,0.014,4.673,0.1107,0.7182000000000001,0.1617,0.029,-0.01,-0.005
1670268489.99997,-9.244,-0.077,4.604,0.11380000000000001,0.7179,0.15990000000000001,0.024,-0.012,-0.013000000000000001
1670268490.03997,-9.239,-0.09,4.559,0.11120000000000001,0.7190000000000001,0.15910000000000002,0.01,-0.015,-0.001
1670268490.07997,-9.335,-0.081,4.601,0.1135,0.7185,0.15910000000000002,0.002,-0.011,0.0
1670268490.11997,-9.342,-0.025,4.655,0.11170000000000001,0.7163,0.1613,0.014,-0.005,-0.009000000000000001
1670268490.15997,-9.326,-0.134,4.676,0.10740000000000001,0.7126,0.1694,0.003,-0.014,-0.008
1670268490.19997,-9.318,0.0,4.639,0.11130000000000001,0.7184,0.1598,0.005,-0.015,-0.005
1670268490.23997,-9.312,-0.129,4.64,0.1131,0.7160000000000001,0.1622,0.009000000000000001,-0.012,0.002
1670268490.27997,-9.283,-0.016,4.655,0.1096,0.7199,0.1593,0.043000000000000003,-0.003,-0.005
1670268490.31997,-9.3,-0.097,4.617,0.1107,0.7195,0.1521,0.046,-0.007,-0.004
1670268490.35997,-9.305,-0.049,4.603,0.10940000000000001,0.7188,0.1474,0.018000000000000002,-0.008,-0.004
1670268490.39997,-9.309000000000001,-0.082,4.646,0.1075,0.7175,0.19440000000000002,0.009000000000000001,-0.025,-0.007
1670268490.43997,-9.401,-0.08600000000000001,4.635,0.1005,0.7132000000000001,0.16740000000000002,-0.004,-0.031,-0.015
1670268490.47997,-9.284,-0.053,4.6450000000000005,0.11180000000000001,0.7187,0.1621,-0.008,-0.019,0.001
1670268490.51997,-9.319,-0.078,4.652,0.112,0.7181000000000001,0.1587,0.009000000000000001,-0.033,-0.018000000000000002
1670268490.55997,-9.329,-0.08,4.6080000000000005,0.1116,0.7183,0.1618,0.018000000000000002,-0.025,-0.021
1670268490.59997,-9.299,-0.123,4.616,0.10990000000000001,0.7175,0.15910000000000002,0.013000000000000001,-0.027,-0.016
1670268490.63997,-9.26,-0.122,4.724,0.1091,0.7203,0.1593,0.011,-0.034,-0.02
1670268490.67997,-9.282,-0.095,4.688,0.112,0.7194,0.1603,0.009000000000000001,-0.031,-0.01
1670268490.71997,-9.327,-0.022,4.678,0.1121,0.7197,0.1574,0.022,-0.024,0.006
1670268490.75997,-9.237,-0.16,4.655,0.1092,0.7182000000000001,0.163,0.022,-0.012,0.0
1670268490.79997,-9.263,-0.07,4.663,0.1125,0.7188,0.16110000000000002,0.028,-0.019,-0.015
1670268490.83997,-9.345,-0.105,4.67,0.1092,0.7187,0.1635,0.015,-0.016,-0.005
1670268490.87997,-9.328,-0.08600000000000001,4.681,0.1106,0.7213,0.1589,0.006,-0.009000000000000001,0.001
1670268490.91997,-9.264,-0.132,4.684,0.1107,0.7187,0.16190000000000002,0.012,-0.019,-0.021
1670268490.95997,-9.244,-0.059000000000000004,4.696,0.10830000000000001,0.7195,0.16190000000000002,0.006,-0.019,-0.007
1670268490.999969,-9.318,-0.15,4.703,0.10980000000000001,0.7165,0.161,0.008,-0.006,0.005
1670268491.039969,-9.267,-0.046,4.654,0.1116,0.7202000000000001,0.1579,0.01,-0.004,0.001
1670268491.079969,-9.244,-0.116,4.642,0.1102,0.7188,0.16110000000000002,0.028,-0.006,0.001
1670268491.119969,-9.277000000000001,-0.10400000000000001,4.6610000000000005,0.11220000000000001,0.7185,0.1632,0.014,-0.007,-0.006
1670268491.159969,-9.297,-0.089,4.6690000000000005,0.112,0.7210000000000001,0.15960000000000002,0.023,-0.01,-0.005
1670268491.199969,-9.292,-0.117,4.658,0.1136,0.7193,0.1588,0.015,-0.009000000000000001,-0.003
1670268491.239969,-9.315,-0.115,4.627,0.11130000000000001,0.7165,0.16160000000000002,0.007,-0.011,-0.003
1670268491.279969,-9.281,-0.088,4.7330000000000005,0.1111,0.7196,0.1607,0.014,-0.014,-0.002
1670268491.319969,-9.318,-0.101,4.619,0.1116,0.7170000000000001,0.15960000000000002,0.011,-0.007,-0.003
1670268491.359969,-9.311,-0.11,4.655,0.1131,0.7220000000000001,0.16110000000000002,0.02,-0.009000000000000001,-0.012
1670268491.399969,-9.279,-0.095,4.62,0.112,0.7174,0.161,0.021,-0.017,-0.007
1670268491.439969,-9.264,-0.17200000000000001,4.668,0.1109,0.7171000000000001,0.1622,0.018000000000000002,-0.019,-0.008
1670268491.479969,-9.329,-0.122,4.682,0.11180000000000001,0.7200000000000001,0.15860000000000002,0.012,-0.016,0.001
1670268491.519969,-9.361,-0.026000000000000002,4.6850000000000005,0.11120000000000001,0.7205,0.1623,0.027,-0.007,0.002
1670268491.559969,-9.218,-0.11,4.658,0.1107,0.7197,0.1602,0.034,-0.013000000000000001,-0.007
1670268491.599969,-9.253,-0.122,4.616,0.11,0.7198,0.1612,0.03,-0.018000000000000002,-0.008
1670268491.639969,-9.316,-0.108,4.6770000000000005,0.1092,0.7193,0.16160000000000002,0.008,-0.011,-0.003
1670268491.679969,-9.290000000000001,-0.084,4.721,0.1109,0.7182000000000001,0.1583,0.016,-0.014,-0.008
1670268491.719969,-9.296,-0.17300000000000001,4.7,0.112,0.7209,0.16010000000000002,0.012,-0.019,-0.011
1670268491.759969,-9.279,-0.005,4.691,0.1115,0.7204,0.1612,0.015,-0.02,-0.005
1670268491.799969,-9.309000000000001,-0.165,4.664,0.109,0.7187,0.1598,0.018000000000000002,-0.011,-0.004
1670268491.839969,-9.241,-0.08700000000000001,4.6690000000000005,0.1135,0.7205,0.1623,0.025,-0.01,0.003
1670268491.879969,-9.247,-0.08700000000000001,4.718,0.11030000000000001,0.7182000000000001,0.1598,0.023,-0.013000000000000001,0.002
1670268491.9199688,-9.298,-0.074,4.6530000000000005,0.11220000000000001,0.7191000000000001,0.1608,0.017,-0.014,-0.008
1670268491.959969,-9.338000000000001,-0.073,4.6610000000000005,0.11170000000000001,0.7197,0.161,0.011,-0.007,-0.009000000000000001
1670268491.999969,-9.314,-0.08700000000000001,4.666,0.1125,0.7180000000000001,0.1658,0.011,-0.01,-0.006
1670268492.039968,-9.299,-0.107,4.635,0.1129,0.7204,0.1588,0.007,-0.015,-0.009000000000000001
1670268492.079968,-9.268,-0.081,4.663,0.11470000000000001,0.7192000000000001,0.16,0.0,-0.011,-0.002
1670268492.119968,-9.286,-0.09,4.688,0.1102,0.7188,0.1588,0.005,-0.006,-0.009000000000000001
1670268492.159968,-9.288,-0.11,4.705,0.1106,0.7181000000000001,0.1705,0.016,-0.012,-0.011
1670268492.199968,-9.304,-0.08600000000000001,4.6850000000000005,0.10830000000000001,0.7182000000000001,0.1342,0.013000000000000001,-0.018000000000000002,-0.018000000000000002
1670268492.239968,-9.239,-0.164,4.602,0.1014,0.7192000000000001,0.16790000000000002,0.004,-0.025,-0.014
1670268492.279968,-9.339,-0.088,4.718,0.11130000000000001,0.7174,0.15560000000000002,0.02,-0.016,0.014
1670268492.319968,-9.189,-0.111,4.646,0.10840000000000001,0.7189,0.1758,0.025,-0.008,-0.002
1670268492.359968,-9.271,-0.134,4.605,0.11170000000000001,0.7183,0.16140000000000002,0.03,-0.013000000000000001,-0.014
1670268492.399968,-9.331,-0.139,4.605,0.11030000000000001,0.7189,0.15990000000000001,0.016,-0.02,-0.006
1670268492.439968,-9.324,-0.105,4.6850000000000005,0.1121,0.7188,0.1567,0.015,-0.01,-0.007
1670268492.479968,-9.272,-0.192,4.6610000000000005,0.10990000000000001,0.7179,0.15990000000000001,0.024,-0.015,-0.025
1670268492.519968,-9.264,-0.038,4.704,0.10980000000000001,0.7201000000000001,0.1636,0.023,-0.023,-0.014
1670268492.559968,-9.289,-0.192,4.6530000000000005,0.11220000000000001,0.7180000000000001,0.16010000000000002,0.01,-0.015,-0.005
1670268492.599968,-9.294,-0.081,4.6450000000000005,0.11120000000000001,0.7216,0.1615,0.022,-0.006,-0.004
1670268492.639968,-9.278,-0.132,4.63,0.1131,0.7204,0.1588,0.022,-0.006,0.0
1670268492.679968,-9.303,-0.107,4.658,0.113,0.7165,0.15940000000000001,0.025,-0.01,0.003
1670268492.719968,-9.295,-0.10400000000000001,4.628,0.1115,0.7203,0.1605,0.026000000000000002,-0.011,0.006
1670268492.759968,-9.315,-0.117,4.655,0.1091,0.7207,0.1602,0.022,-0.008,0.0
1670268492.799968,-9.278,-0.123,4.68,0.1109,0.7197,0.1607,0.014,-0.01,0.002
1670268492.839968,-9.259,-0.131,4.618,0.1126,0.7201000000000001,0.161,0.011,-0.014,0.0
1670268492.879968,-9.315,-0.10400000000000001,4.668,0.108,0.7207,0.1582,0.02,-0.017,-0.002
1670268492.919968,-9.305,-0.117,4.716,0.11030000000000001,0.7207,0.1625,0.02,-0.017,-0.004
1670268492.9599679,-9.308,-0.09,4.691,0.1145,0.7207,0.15990000000000001,0.026000000000000002,-0.013000000000000001,0.005
1670268492.999968,-9.322000000000001,-0.08,4.656,0.112,0.7184,0.1589,0.027,-0.012,0.001
1670268493.039968,-9.281,-0.145,4.638,0.11230000000000001,0.7213,0.1589,0.02,-0.01,0.0
1670268493.079967,-9.334,-0.099,4.673,0.10890000000000001,0.7192000000000001,0.1612,0.019,-0.015,0.006
1670268493.119967,-9.361,0.035,4.7010000000000005,0.113,0.7173,0.1585,0.046,-0.002,0.013000000000000001
1670268493.159967,-9.238,-0.20500000000000002,4.606,0.1131,0.7184,0.1602,0.016,0.009000000000000001,0.019
1670268493.199967,-9.242,-0.002,4.631,0.112,0.7186,0.1579,0.011,0.004,0.003
1670268493.239967,-9.314,-0.106,4.577,0.11220000000000001,0.7185,0.16440000000000002,0.015,-0.008,-0.002
1670268493.279967,-9.363,-0.014,4.611,0.1121,0.7165,0.1621,0.03,-0.009000000000000001,0.0
1670268493.319967,-9.264,-0.113,4.6530000000000005,0.1125,0.7174,0.1613,0.033,-0.041,-0.023
1670268493.359967,-9.249,-0.022,4.631,0.1121,0.7205,0.1602,0.024,-0.029,-0.015
1670268493.399967,-9.308,-0.17200000000000001,4.636,0.1124,0.7187,0.16090000000000002,0.018000000000000002,-0.026000000000000002,-0.005
1670268493.439967,-9.291,-0.055,4.647,0.1121,0.7168,0.1577,0.018000000000000002,-0.014,0.002
1670268493.479967,-9.262,-0.05,4.7,0.1091,0.7178,0.16190000000000002,0.024,-0.016,-0.006
1670268493.519967,-9.283,-0.061,4.706,0.112,0.7206,0.1625,0.034,-0.013000000000000001,-0.007
1670268493.559967,-9.334,-0.073,4.632,0.1114,0.7174,0.16110000000000002,0.023,-0.012,0.0
1670268493.599967,-9.302,-0.08,4.652,0.1114,0.7195,0.162,0.021,-0.012,-0.003
1670268493.639967,-9.271,-0.064,4.716,0.113,0.7187,0.1607,0.015,-0.013000000000000001,-0.008
1670268493.679967,-9.253,-0.07100000000000001,4.7250000000000005,0.1096,0.7167,0.1635,0.014,-0.016,-0.003
1670268493.719967,-9.307,-0.075,4.6610000000000005,0.11380000000000001,0.7217,0.16040000000000001,0.019,-0.018000000000000002,-0.008
1670268493.7599669,-9.306000000000001,-0.057,4.678,0.1061,0.7168,0.1632,0.014,-0.013000000000000001,-0.01
1670268493.799967,-9.261000000000001,-0.059000000000000004,4.703,0.11170000000000001,0.7171000000000001,0.16010000000000002,0.017,-0.019,-0.007
1670268493.839967,-9.253,-0.076,4.646,0.1102,0.7159,0.1621,0.016,-0.018000000000000002,0.003
1670268493.879967,-9.297,-0.074,4.654,0.1105,0.7190000000000001,0.16110000000000002,0.024,-0.018000000000000002,-0.009000000000000001
1670268493.919967,-9.32,-0.044,4.679,0.10890000000000001,0.7178,0.1567,0.013000000000000001,-0.009000000000000001,-0.003
1670268493.959967,-9.203,-0.138,4.652,0.1131,0.7159,0.1617,0.0,-0.02,-0.005
1670268493.9999669,-9.287,-0.077,4.684,0.108,0.7180000000000001,0.1721,0.018000000000000002,-0.019,0.007
1670268494.039967,-9.366,-0.011,4.686,0.11170000000000001,0.7182000000000001,0.1618,0.014,0.0,-0.01
1670268494.079967,-9.196,-0.057,4.71,0.1092,0.7184,0.1748,0.013000000000000001,-0.014,-0.019
1670268494.119967,-9.21,-0.101,4.62,0.1082,0.7166,0.1746,-0.003,-0.014,0.0
1670268494.159967,-9.364,-0.006,4.73,0.10600000000000001,0.7190000000000001,0.13820000000000002,0.004,-0.01,0.0
1670268494.199966,-9.284,-0.17400000000000002,4.729,0.09730000000000001,0.7172000000000001,0.1713,0.018000000000000002,-0.01,-0.017
1670268494.239966,-9.284,-0.019,4.728,0.10450000000000001,0.7174,0.1598,0.005,-0.018000000000000002,-0.001
1670268494.279966,-9.3,-0.157,4.633,0.1075,0.7184,0.1568,0.008,-0.011,-0.009000000000000001
1670268494.319966,-9.272,-0.045,4.671,0.1109,0.7216,0.16010000000000002,0.003,-0.014,-0.001
1670268494.359966,-9.312,-0.063,4.676,0.1086,0.7188,0.1635,0.019,-0.011,-0.003
1670268494.399966,-9.278,-0.098,4.647,0.1111,0.7168,0.163,0.018000000000000002,-0.004,0.005
1670268494.439966,-9.315,-0.091,4.6530000000000005,0.11030000000000001,0.7170000000000001,0.1603,0.021,-0.008,-0.001
1670268494.479966,-9.3,-0.089,4.643,0.11030000000000001,0.7168,0.1583,0.016,-0.008,0.001
1670268494.519966,-9.301,-0.08,4.604,0.113,0.7173,0.1588,0.016,-0.011,-0.002
1670268494.5599658,-9.304,-0.08600000000000001,4.651,0.1107,0.7174,0.16090000000000002,0.017,-0.017,-0.003
1670268494.599966,-9.275,-0.099,4.616,0.11,0.7171000000000001,0.16010000000000002,0.009000000000000001,-0.023,-0.009000000000000001
1670268494.639966,-9.31,-0.081,4.6450000000000005,0.1114,0.7201000000000001,0.1592,0.013000000000000001,-0.025,-0.017
1670268494.679966,-9.295,-0.079,4.6850000000000005,0.11080000000000001,0.7170000000000001,0.1585,0.012,-0.028,-0.009000000000000001
1670268494.719966,-9.248,-0.105,4.699,0.10940000000000001,0.7202000000000001,0.1607,0.015,-0.017,-0.008
1670268494.759966,-9.28,-0.056,4.715,0.1082,0.7165,0.1598,0.023,-0.017,-0.008
1670268494.7999659,-9.271,-0.111,4.707,0.1096,0.7198,0.161,0.018000000000000002,-0.02,-0.005
1670268494.839966,-9.347,-0.125,4.658,0.11040000000000001,0.7196,0.157,0.015,-0.01,0.003
1670268494.879966,-9.347,-0.08700000000000001,4.658,0.11130000000000001,0.7173,0.15960000000000002,0.032,-0.004,0.003
1670268494.919966,-9.209,-0.066,4.6610000000000005,0.1114,0.7198,0.15910000000000002,0.025,-0.014,-0.009000000000000001
1670268494.959966,-9.246,-0.11900000000000001,4.642,0.1119,0.7214,0.1592,0.023,-0.018000000000000002,-0.006
1670268494.999966,-9.34,-0.07,4.643,0.1106,0.7209,0.1592,0.007,-0.014,0.001
1670268495.0399659,-9.291,-0.08600000000000001,4.666,0.10980000000000001,0.7190000000000001,0.1605,0.013000000000000001,-0.009000000000000001,-0.01
1670268495.079966,-9.3,-0.167,4.665,0.1119,0.7199,0.15990000000000001,0.019,-0.012,-0.016
1670268495.119966,-9.303,-0.016,4.7090000000000005,0.1107,0.7154,0.16190000000000002,0.018000000000000002,-0.018000000000000002,-0.006
1670268495.159966,-9.317,-0.107,4.652,0.1087,0.7180000000000001,0.15910000000000002,0.015,-0.012,-0.001
1670268495.199966,-9.254,-0.061,4.692,0.1081,0.7186,0.16060000000000002,0.02,-0.007,0.0
1670268495.239965,-9.255,-0.098,4.686,0.1102,0.7177,0.15910000000000002,0.022,-0.011,-0.006
1670268495.279965,-9.32,-0.084,4.715,0.1062,0.7174,0.1573,0.01,-0.015,0.002
1670268495.319965,-9.312,-0.078,4.715,0.11030000000000001,0.7200000000000001,0.1588,0.013000000000000001,-0.011,0.0
1670268495.3599648,-9.299,-0.084,4.6370000000000005,0.1114,0.7198,0.1605,0.015,-0.002,-0.01
1670268495.399965,-9.266,-0.10300000000000001,4.601,0.1121,0.7197,0.1608,0.011,-0.01,-0.002
1670268495.439965,-9.296,-0.113,4.684,0.1109,0.7181000000000001,0.16290000000000002,0.006,-0.01,0.0
1670268495.479965,-9.288,-0.105,4.6690000000000005,0.1095,0.7190000000000001,0.16290000000000002,0.01,-0.014,-0.004
1670268495.519965,-9.281,-0.076,4.731,0.1115,0.7184,0.1621,0.018000000000000002,-0.016,-0.011
1670268495.559965,-9.282,-0.10400000000000001,4.713,0.1096,0.7185,0.1593,0.023,-0.019,-0.007
1670268495.5999649,-9.257,-0.117,4.679,0.1119,0.7198,0.1608,0.023,-0.016,-0.004
1670268495.639965,-9.236,-0.084,4.672,0.1102,0.7200000000000001,0.1593,0.021,-0.017,-0.008
1670268495.679965,-9.34,-0.067,4.67,0.11220000000000001,0.7196,0.16,0.034,-0.01,0.004
1670268495.719965,-9.34,-0.137,4.6930000000000005,0.1095,0.7204,0.1627,0.03,-0.002,-0.001
1670268495.759965,-9.22,-0.04,4.688,0.11130000000000001,0.7174,0.1623,0.016,-0.013000000000000001,-0.009000000000000001
1670268495.799965,-9.288,-0.111,4.613,0.11130000000000001,0.7185,0.16140000000000002,0.006,-0.013000000000000001,0.001
1670268495.8399649,-9.303,-0.077,4.692,0.1131,0.7191000000000001,0.1585,0.008,-0.011,0.0
1670268495.879965,-9.276,-0.047,4.692,0.10930000000000001,0.7164,0.1558,0.011,-0.016,-0.015
1670268495.919965,-9.27,-0.122,4.694,0.1102,0.7185,0.15,0.018000000000000002,-0.03,-0.005
1670268495.959965,-9.33,-0.062,4.688,0.1106,0.7182000000000001,0.1648,0.015,-0.011,0.003
1670268495.999965,-9.317,-0.075,4.6850000000000005,0.09820000000000001,0.7146,0.18710000000000002,0.033,-0.002,-0.01
1670268496.039965,-9.296,-0.123,4.6290000000000004,0.1061,0.7163,0.1327,0.053,-0.002,-0.005
1670268496.0799649,-9.351,-0.096,4.639,0.10690000000000001,0.7184,0.1587,0.024,-0.016,0.0
1670268496.119965,-9.332,-0.058,4.6450000000000005,0.1095,0.7182000000000001,0.1595,0.015,-0.022,-0.002
1670268496.159965,-9.369,-0.1,4.73,0.11030000000000001,0.7195,0.1592,0.015,-0.023,-0.004
1670268496.199965,-9.323,-0.056,4.625,0.11230000000000001,0.7200000000000001,0.16,0.001,-0.029,-0.017
1670268496.239965,-9.3,-0.084,4.615,0.11280000000000001,0.7187,0.1605,-0.001,-0.034,-0.014
1670268496.279964,-9.267,-0.11800000000000001,4.679,0.10930000000000001,0.7191000000000001,0.159,0.006,-0.027,0.0
1670268496.319964,-9.25,-0.049,4.682,0.112,0.7196,0.16010000000000002,0.019,-0.029,-0.003
1670268496.359964,-9.295,-0.096,4.657,0.1109,0.7202000000000001,0.16040000000000001,0.033,-0.028,-0.017
1670268496.3999639,-9.254,-0.168,4.671,0.1091,0.7170000000000001,0.1613,0.031,-0.03,-0.02
1670268496.439964,-9.3,-0.08,4.72,0.1087,0.7206,0.16240000000000002,0.018000000000000002,-0.031,-0.006
1670268496.479964,-9.343,0.032,4.763,0.1095,0.7185,0.15990000000000001,0.019,-0.021,0.014
1670268496.519964,-9.237,-0.149,4.655,0.1063,0.7166,0.16190000000000002,0.027,0.0,0.0
1670268496.559964,-9.208,-0.07,4.697,0.1095,0.7196,0.1608,0.028,-0.009000000000000001,-0.006
1670268496.599964,-9.299,-0.078,4.697,0.10880000000000001,0.7172000000000001,0.16090000000000002,0.008,-0.011,0.0
1670268496.6399639,-9.263,-0.051000000000000004,4.652,0.1095,0.7167,0.1608,0.011,-0.005,0.002
1670268496.679964,-9.24,-0.082,4.692,0.1102,0.7157,0.1605,0.021,-0.006,-0.017
1670268496.719964,-9.209,-0.065,4.674,0.1086,0.7176,0.1603,0.008,-0.017,0.0
1670268496.759964,-9.326,-0.11,4.634,0.1085,0.7171000000000001,0.1622,0.018000000000000002,-0.016,-0.004
1670268496.799964,-9.264,-0.025,4.697,0.11080000000000001,0.7184,0.16010000000000002,0.011,-0.001,-0.007
1670268496.839964,-9.290000000000001,-0.083,4.6850000000000005,0.1073,0.7149,0.1584,0.025,-0.005,0.004
1670268496.8799639,-9.267,-0.068,4.6850000000000005,0.1073,0.7187,0.15960000000000002,0.015,-0.01,0.003
1670268496.919964,-9.307,-0.061,4.644,0.11270000000000001,0.7170000000000001,0.1612,0.018000000000000002,-0.011,-0.002
1670268496.959964,-9.294,-0.049,4.714,0.1076,0.7176,0.1597,0.024,-0.012,-0.006
1670268496.999964,-9.295,-0.107,4.6690000000000005,0.10840000000000001,0.7183,0.1583,0.01,-0.014,-0.002
1670268497.039964,-9.307,-0.058,4.676,0.1101,0.7179,0.1626,0.007,-0.011,-0.002
1670268497.079964,-9.299,-0.084,4.699,0.1095,0.7201000000000001,0.16010000000000002,0.01,-0.011,0.001
1670268497.119964,-9.3,-0.061,4.663,0.1076,0.7187,0.15990000000000001,0.014,-0.01,-0.004
1670268497.159964,-9.311,-0.083,4.66,0.1106,0.7182000000000001,0.1607,0.017,-0.013000000000000001,-0.01
1670268497.199964,-9.243,-0.127,4.649,0.11,0.7184,0.15990000000000001,0.014,-0.023,-0.008
1670268497.239964,-9.296,-0.095,4.704,0.109,0.7179,0.1608,0.008,-0.016,0.002
1670268497.279964,-9.356,0.044,4.667,0.11080000000000001,0.7191000000000001,0.16110000000000002,0.035,-0.008,-0.001
1670268497.319963,-9.281,-0.123,4.66,0.1097,0.7185,0.16140000000000002,0.031,-0.014,-0.013000000000000001
1670268497.359963,-9.281,-0.076,4.639,0.1105,0.7182000000000001,0.1618,0.018000000000000002,-0.012,0.001
1670268497.399963,-9.313,-0.081,4.674,0.10980000000000001,0.7190000000000001,0.162,0.01,-0.013000000000000001,-0.001
1670268497.4399629,-9.318,-0.059000000000000004,4.675,0.1073,0.7181000000000001,0.1612,0.015,-0.013000000000000001,-0.006
1670268497.479963,-9.26,-0.091,4.6850000000000005,0.11080000000000001,0.7174,0.1602,0.013000000000000001,-0.01,-0.01
1670268497.519963,-9.222,-0.024,4.732,0.0979,0.7138,0.1685,0.018000000000000002,-0.016,-0.008
1670268497.559963,-9.294,-0.153,4.654,0.11030000000000001,0.7178,0.1648,0.016,-0.012,0.001
1670268497.599963,-9.263,-0.064,4.689,0.1111,0.7196,0.1597,0.026000000000000002,-0.007,-0.005
1670268497.639963,-9.297,-0.07,4.699,0.1095,0.7179,0.16060000000000002,0.022,-0.007,0.004
1670268497.6799629,-9.302,-0.074,4.691,0.108,0.7188,0.15990000000000001,0.022,-0.011,0.005
1670268497.719963,-9.298,-0.032,4.678,0.11130000000000001,0.7181000000000001,0.1605,0.025,-0.005,-0.002
1670268497.759963,-9.31,-0.056,4.678,0.10500000000000001,0.7173,0.16240000000000002,0.019,-0.015,-0.012
1670268497.799963,-9.25,-0.08700000000000001,4.626,0.10450000000000001,0.7166,0.1608,0.01,-0.02,-0.008
1670268497.839963,-9.257,-0.052000000000000005,4.694,0.1097,0.7174,0.1758,0.006,-0.023,-0.008
1670268497.879963,-9.278,-0.083,4.671,0.1105,0.7198,0.1472,0.012,-0.018000000000000002,-0.012
1670268497.919963,-9.284,-0.074,4.652,0.1109,0.7188,0.1567,0.021,-0.013000000000000001,-0.009000000000000001
1670268497.959963,-9.214,-0.107,4.703,0.1114,0.7183,0.17220000000000002,0.009000000000000001,-0.012,-0.004
1670268497.999963,-9.329,-0.08,4.695,0.1051,0.7177,0.1626,0.008,-0.017,-0.001
1670268498.039963,-9.358,-0.073,4.672,0.11,0.7180000000000001,0.1623,0.038,-0.008,-0.005
1670268498.079963,-9.227,-0.065,4.66,0.1106,0.7181000000000001,0.1633,0.037,-0.006,-0.008
1670268498.119963,-9.259,-0.096,4.686,0.10640000000000001,0.7187,0.1597,0.017,-0.018000000000000002,-0.013000000000000001
1670268498.159963,-9.325000000000001,-0.041,4.696,0.111,0.7197,0.16240000000000002,0.012,-0.02,0.0
1670268498.199963,-9.303,-0.032,4.721,0.1092,0.7174,0.15940000000000001,0.016,-0.009000000000000001,0.001
1670268498.239963,-9.298,-0.135,4.6770000000000005,0.1107,0.7181000000000001,0.1615,0.02,-0.018000000000000002,-0.013000000000000001
1670268498.279963,-9.312,-0.025,4.6850000000000005,0.1091,0.7173,0.1608,0.013000000000000001,-0.021,-0.006
1670268498.319963,-9.287,-0.079,4.665,0.1075,0.7181000000000001,0.15710000000000002,0.017,-0.018000000000000002,-0.004
1670268498.359962,-9.244,-0.084,4.6450000000000005,0.11030000000000001,0.7199,0.1638,0.028,-0.019,-0.01
1670268498.399962,-9.246,-0.074,4.7250000000000005,0.10830000000000001,0.7209,0.1636,0.015,-0.021,-0.008
1670268498.439962,-9.279,-0.067,4.673,0.1081,0.7190000000000001,0.16160000000000002,0.02,-0.028,-0.007
1670268498.4799619,-9.257,-0.07,4.7250000000000005,0.1114,0.7202000000000001,0.159,0.017,-0.015,-0.008
1670268498.519962,-9.278,-0.088,4.652,0.1075,0.7172000000000001,0.159,0.022,-0.013000000000000001,-0.013000000000000001
1670268498.559962,-9.247,-0.091,4.689,0.1106,0.7189,0.1574,0.014,-0.017,-0.005
1670268498.599962,-9.282,-0.10200000000000001,4.672,0.10840000000000001,0.7210000000000001,0.15990000000000001,0.007,-0.017,-0.005
1670268498.639962,-9.263,-0.08600000000000001,4.7250000000000005,0.1086,0.7176,0.1582,0.01,-0.016,-0.012
1670268498.679962,-9.248,-0.105,4.767,0.11,0.7166,0.1588,0.021,-0.013000000000000001,-0.008
1670268498.719962,-9.229000000000001,-0.153,4.682,0.1111,0.7201000000000001,0.161,0.007,-0.021,-0.011
1670268498.759962,-9.304,-0.093,4.69,0.1081,0.7170000000000001,0.1592,0.01,-0.022,-0.003
1670268498.799962,-9.34,-0.033,4.694,0.1058,0.7166,0.1653,0.026000000000000002,0.0,0.02
1670268498.839962,-9.257,-0.198,4.668,0.1095,0.7185,0.1622,-0.021,0.031,0.034
1670268498.879962,-9.226,-0.01,4.6450000000000005,0.1095,0.7182000000000001,0.1612,0.0,-0.001,0.002
1670268498.919962,-9.294,-0.198,4.751,0.1101,0.7184,0.15560000000000002,-0.001,-0.03,-0.021
1670268498.959962,-9.202,-0.112,4.611,0.1095,0.7187,0.1584,0.027,-0.04,-0.07100000000000001
1670268498.999962,-9.024000000000001,0.195,4.755,0.1086,0.7185,0.1597,0.11,-0.025,-0.085
1670268499.039962,-9.191,-0.326,4.663,0.10740000000000001,0.7201000000000001,0.15940000000000001,0.056,-0.055,-0.009000000000000001
1670268499.079962,-9.397,-0.179,4.659,0.10840000000000001,0.7206,0.1597,0.025,-0.03,0.007
1670268499.119962,-9.243,-0.113,4.713,0.1066,0.7179,0.1602,0.037,-0.027,0.0
1670268499.159962,-9.257,-0.091,4.724,0.10890000000000001,0.7212000000000001,0.1608,0.042,-0.024,0.001
1670268499.199962,-9.247,-0.092,4.815,0.10650000000000001,0.7181000000000001,0.15940000000000001,0.027,-0.022,0.0
1670268499.239962,-9.263,-0.098,4.708,0.10830000000000001,0.7185,0.1589,0.024,-0.018000000000000002,0.0
1670268499.279962,-9.267,-0.101,4.745,0.1024,0.7193,0.1637,0.012,-0.013000000000000001,-0.001
1670268499.319962,-9.223,-0.094,4.7250000000000005,0.1078,0.7181000000000001,0.1643,0.009000000000000001,-0.01,-0.004
1670268499.359962,-9.272,-0.084,4.744,0.1081,0.7179,0.1607,0.0,-0.007,0.0
1670268499.399961,-9.264,-0.08,4.714,0.1073,0.7171000000000001,0.1621,0.006,-0.012,0.002
1670268499.439961,-9.247,-0.091,4.728,0.1085,0.7183,0.15960000000000002,0.007,-0.004,-0.004
1670268499.479961,-9.232,-0.084,4.7330000000000005,0.1075,0.7173,0.1618,0.01,-0.011,-0.007
1670268499.5199609,-9.239,-0.154,4.7330000000000005,0.09920000000000001,0.7134,0.1696,0.012,-0.016,-0.004
1670268499.559961,-9.284,-0.097,4.765,0.1106,0.7186,0.1608,0.022,-0.005,0.012
1670268499.599961,-9.339,-0.063,4.702,0.10590000000000001,0.7195,0.1592,0.018000000000000002,0.003,0.0
1670268499.639961,-9.209,-0.10200000000000001,4.724,0.1102,0.7199,0.16160000000000002,0.027,-0.004,-0.006
1670268499.679961,-9.236,-0.126,4.643,0.1063,0.7202000000000001,0.16570000000000001,0.005,-0.012,-0.003
1670268499.719961,-9.314,-0.129,4.692,0.1057,0.7195,0.1656,0.01,-0.011,-0.006
1670268499.759961,-9.324,-0.169,4.723,0.11230000000000001,0.7153,0.1607,0.008,-0.016,-0.015
1670268499.799961,-9.257,-0.017,4.78,0.0984,0.7178,0.17070000000000002,0.011,-0.021,-0.004
1670268499.839961,-9.284,-0.14200000000000002,4.689,0.10690000000000001,0.7173,0.164,0.021,-0.015,-0.007
1670268499.799961,-9.25,-0.08600000000000001,4.704,0.108,0.7171000000000001,0.15990000000000001,0.02,-0.009000000000000001,-0.001
1670268499.839961,-9.226,-0.10300000000000001,4.7330000000000005,0.10840000000000001,0.7190000000000001,0.1583,0.021,-0.012,0.003
1670268499.879961,-9.294,-0.066,4.648,0.1061,0.7181000000000001,0.1622,0.019,-0.008,0.003
1670268499.919961,-9.293000000000001,-0.098,4.666,0.10310000000000001,0.7166,0.1603,0.018000000000000002,-0.012,-0.002
1670268499.959961,-9.271,-0.08700000000000001,4.724,0.10940000000000001,0.7188,0.1615,0.022,-0.01,-0.004
1670268499.999961,-9.289,-0.098,4.69,0.10980000000000001,0.7194,0.1603,0.008,-0.009000000000000001,-0.003
1670268500.039961,-9.257,-0.068,4.715,0.1072,0.7183,0.16090000000000002,0.012,-0.013000000000000001,0.0
1670268500.079961,-9.26,-0.077,4.7090000000000005,0.1081,0.7209,0.1597,0.006,-0.01,0.0
1670268500.119961,-9.269,-0.107,4.684,0.1078,0.7194,0.1623,0.014,-0.012,-0.011
1670268500.159961,-9.191,-0.153,4.749,0.1078,0.7170000000000001,0.16040000000000001,0.014,-0.015,-0.007
1670268500.199961,-9.303,-0.121,4.694,0.10690000000000001,0.7204,0.16110000000000002,0.005,-0.022,-0.001
1670268500.239961,-9.345,0.014,4.68,0.10640000000000001,0.7180000000000001,0.1627,0.03,-0.011,0.005
1670268500.279961,-9.237,-0.123,4.666,0.10740000000000001,0.7155,0.159,0.038,-0.004,-0.011
1670268500.319961,-9.234,-0.084,4.679,0.10840000000000001,0.7195,0.161,0.04,-0.018000000000000002,-0.025
1670268500.359961,-9.276,-0.152,4.649,0.1081,0.7167,0.15860000000000002,0.026000000000000002,-0.02,-0.01
1670268500.399961,-9.278,-0.093,4.749,0.1092,0.7175,0.1602,0.004,-0.012,0.003
1670268500.43996,-9.271,-0.126,4.703,0.10840000000000001,0.7204,0.1632,0.009000000000000001,-0.019,-0.008
1670268500.47996,-9.258000000000001,-0.023,4.722,0.1061,0.7187,0.1607,0.024,-0.014,-0.011
1670268500.51996,-9.287,-0.157,4.755,0.1075,0.7188,0.1618,0.02,-0.015,0.001
1670268500.55996,-9.256,-0.062,4.7,0.10940000000000001,0.7190000000000001,0.1607,0.014,-0.008,-0.002
1670268500.59996,-9.254,-0.095,4.728,0.10640000000000001,0.7193,0.1621,0.027,-0.008,0.0
1670268500.63996,-9.244,-0.077,4.724,0.1073,0.7170000000000001,0.16240000000000002,0.021,-0.011,0.0
1670268500.67996,-9.317,-0.064,4.671,0.1081,0.7178,0.1605,0.017,-0.009000000000000001,-0.005
1670268500.71996,-9.267,-0.079,4.743,0.10830000000000001,0.7181000000000001,0.1617,0.017,-0.005,-0.005
1670268500.75996,-9.273,-0.094,4.66,0.1091,0.7168,0.1626,0.01,-0.003,-0.007
1670268500.79996,-9.295,-0.075,4.641,0.112,0.7190000000000001,0.1615,0.01,-0.005,-0.005
1670268500.83996,-9.277000000000001,-0.061,4.6930000000000005,0.10840000000000001,0.7174,0.16040000000000001,0.015,-0.009000000000000001,-0.011
1670268500.87996,-9.267,-0.082,4.686,0.1077,0.7197,0.161,0.01,-0.02,-0.014
1670268500.91996,-9.306000000000001,-0.10400000000000001,4.6930000000000005,0.1076,0.7166,0.15810000000000002,-0.003,-0.023,-0.015
1670268500.95996,-9.248,-0.092,4.716,0.108,0.7201000000000001,0.1618,0.002,-0.023,-0.007
1670268500.99996,-9.261000000000001,-0.044,4.686,0.1037,0.7198,0.1612,0.029,-0.01,0.008
1670268501.03996,-9.319,-0.131,4.7010000000000005,0.1086,0.7166,0.1635,0.031,-0.006,-0.001
1670268501.07996,-9.165000000000001,-0.07100000000000001,4.667,0.1062,0.7186,0.15940000000000001,0.028,-0.015,-0.015
1670268501.11996,-9.285,-0.128,4.689,0.10990000000000001,0.7199,0.1613,0.007,-0.019,-0.006
1670268501.15996,-9.312,-0.098,4.715,0.10980000000000001,0.7185,0.1627,0.006,-0.014,0.0
1670268501.19996,-9.241,-0.077,4.71,0.09920000000000001,0.7182000000000001,0.161,0.013000000000000001,-0.019,-0.018000000000000002
1670268501.23996,-9.261000000000001,-0.101,4.695,0.1091,0.7179,0.16090000000000002,0.01,-0.023,-0.004
1670268501.27996,-9.314,-0.097,4.721,0.1095,0.7170000000000001,0.1647,0.018000000000000002,-0.018000000000000002,-0.004
1670268501.31996,-9.27,-0.073,4.682,0.1067,0.7210000000000001,0.16010000000000002,0.02,-0.01,-0.003
1670268501.35996,-9.232,-0.092,4.7170000000000005,0.1078,0.7190000000000001,0.1615,0.024,-0.016,-0.011
1670268501.39996,-9.271,-0.1,4.722,0.10690000000000001,0.7190000000000001,0.1597,0.022,-0.022,-0.004
1670268501.43996,-9.311,-0.067,4.68,0.10490000000000001,0.7146,0.1608,0.026000000000000002,-0.024,-0.004
1670268501.479959,-9.267,-0.105,4.698,0.1076,0.7182000000000001,0.1666,0.005,-0.018000000000000002,-0.003
1670268501.519959,-9.258000000000001,-0.091,4.7090000000000005,0.10360000000000001,0.7202000000000001,0.1763,0.017,-0.018000000000000002,-0.008
1670268501.559959,-9.286,-0.09,4.719,0.108,0.7171000000000001,0.1651,0.004,-0.013000000000000001,-0.006
1670268501.599959,-9.27,-0.1,4.74,0.1076,0.7184,0.15080000000000002,0.043000000000000003,-0.001,-0.015
1670268501.639959,-9.254,-0.11800000000000001,4.714,0.1062,0.7197,0.16160000000000002,0.039,-0.004,-0.01
1670268501.679959,-9.318,-0.093,4.666,0.1086,0.7203,0.1608,0.014,-0.015,0.0
1670268501.719959,-9.243,-0.105,4.7250000000000005,0.10830000000000001,0.7179,0.16160000000000002,0.003,-0.022,-0.01
1670268501.759959,-9.313,-0.128,4.727,0.108,0.7185,0.1598,-0.005,-0.037,-0.012
1670268501.799959,-9.312,-0.067,4.698,0.10700000000000001,0.7174,0.162,0.016,-0.022,0.0
1670268501.839959,-9.189,-0.109,4.6690000000000005,0.1086,0.7199,0.1598,0.0,-0.021,0.0
1670268501.879959,-9.228,-0.089,4.713,0.10700000000000001,0.7192000000000001,0.1587,0.011,-0.017,-0.015
1670268501.919959,-9.263,-0.153,4.689,0.10840000000000001,0.7206,0.1602,0.019,-0.031,-0.015
1670268501.959959,-9.286,-0.11,4.737,0.1051,0.7202000000000001,0.16010000000000002,0.013000000000000001,-0.021,-0.005
1670268501.999959,-9.275,-0.17500000000000002,4.7700000000000005,0.1013,0.7198,0.163,0.004,-0.027,-0.013000000000000001
1670268502.039959,-9.272,-0.074,4.774,0.108,0.7195,0.16290000000000002,0.008,-0.03,-0.01
1670268502.079959,-9.268,-0.128,4.715,0.11040000000000001,0.7178,0.15990000000000001,0.021,-0.014,-0.007
1670268502.119959,-9.227,-0.105,4.746,0.1095,0.7192000000000001,0.1618,0.025,-0.012,0.0
1670268502.159959,-9.218,-0.14200000000000002,4.758,0.1058,0.7227,0.1617,0.024,-0.015,0.008
1670268502.199959,-9.265,-0.106,4.738,0.1081,0.7198,0.1607,0.024,-0.01,0.006
1670268502.239959,-9.295,-0.097,4.749,0.1056,0.7175,0.1618,0.026000000000000002,-0.013000000000000001,-0.001
1670268502.279959,-9.263,-0.09,4.734,0.1061,0.7208,0.1622,0.027,-0.013000000000000001,0.0
1670268502.319959,-9.214,-0.107,4.761,0.1067,0.7171000000000001,0.15910000000000002,0.016,-0.013000000000000001,-0.001
1670268502.359959,-9.265,-0.098,4.6610000000000005,0.1058,0.7196,0.15940000000000001,0.013000000000000001,-0.013000000000000001,0.0
1670268502.3999588,-9.242,-0.115,4.705,0.10830000000000001,0.7184,0.1602,0.014,-0.007,0.0
1670268502.439959,-9.262,-0.106,4.743,0.10450000000000001,0.7185,0.1602,0.014,-0.016,-0.005
1670268502.479959,-9.25,-0.107,4.723,0.1061,0.7184,0.16390000000000002,0.024,-0.015,-0.004
1670268502.519958,-9.259,-0.153,4.7330000000000005,0.1051,0.7193,0.16160000000000002,0.011,-0.019,-0.003
1670268502.559958,-9.214,-0.076,4.792,0.1072,0.7204,0.1607,0.027,-0.023,-0.005
1670268502.599958,-9.302,-0.049,4.719,0.10690000000000001,0.7170000000000001,0.16240000000000002,0.03,-0.008,0.008
1670268502.639958,-9.251,-0.156,4.739,0.10550000000000001,0.7168,0.1646,0.026000000000000002,-0.007,-0.002
1670268502.679958,-9.188,-0.069,4.7090000000000005,0.1078,0.7176,0.16060000000000002,0.022,-0.012,-0.013000000000000001
1670268502.719958,-9.294,-0.094,4.698,0.10550000000000001,0.7168,0.16160000000000002,0.006,-0.006,0.0
1670268502.759958,-9.247,-0.079,4.756,0.1051,0.7167,0.161,0.014,-0.007,0.004
1670268502.799958,-9.212,-0.11,4.766,0.1066,0.7160000000000001,0.1605,0.011,0.004,-0.001
1670268502.839958,-9.216000000000001,-0.056,4.735,0.10830000000000001,0.7170000000000001,0.1605,0.024,-0.004,0.002
1670268502.879958,-9.272,-0.136,4.734,0.10930000000000001,0.7205,0.16290000000000002,0.035,-0.002,0.0
1670268502.919958,-9.26,-0.041,4.712,0.108,0.7177,0.16060000000000002,0.036000000000000004,-0.005,0.001
1670268502.959958,-9.224,-0.099,4.714,0.109,0.7193,0.16690000000000002,0.033,-0.004,0.007
1670268502.999958,-9.259,-0.073,4.7250000000000005,0.10450000000000001,0.7157,0.1632,0.022,-0.008,0.011
1670268503.039958,-9.282,-0.048,4.6610000000000005,0.11040000000000001,0.7179,0.1632,0.021,-0.006,0.0
1670268503.079958,-9.293000000000001,-0.059000000000000004,4.736,0.1086,0.7181000000000001,0.1622,0.019,0.0,0.0
1670268503.119958,-9.262,-0.08,4.674,0.1078,0.7190000000000001,0.16040000000000001,0.008,-0.007,-0.003
1670268503.159958,-9.255,-0.063,4.6530000000000005,0.1072,0.7159,0.1607,0.017,-0.006,0.003
1670268503.1999578,-9.23,-0.055,4.704,0.10260000000000001,0.7207,0.1637,0.024,-0.014,-0.004
1670268503.239958,-9.3,-0.059000000000000004,4.651,0.1071,0.7174,0.16340000000000002,0.034,-0.016,-0.007
1670268503.279958,-9.258000000000001,-0.062,4.708,0.1003,0.7183,0.168,0.024,-0.016,-0.003
1670268503.319958,-9.282,-0.07100000000000001,4.722,0.1086,0.7142000000000001,0.1621,0.026000000000000002,-0.015,-0.007
1670268503.359958,-9.273,-0.077,4.73,0.1056,0.7166,0.1627,0.018000000000000002,-0.017,-0.002
1670268503.399958,-9.264,-0.053,4.691,0.1047,0.7142000000000001,0.1661,0.01,-0.007,0.006
1670268503.4399579,-9.307,-0.099,4.674,0.10690000000000001,0.7178,0.1746,0.019,0.0,-0.001
1670268503.479958,-9.174,-0.01,4.711,0.0989,0.7140000000000001,0.1558,0.021,-0.008,-0.013000000000000001
1670268503.519958,-9.284,-0.07,4.673,0.1067,0.7168,0.162,0.001,-0.013000000000000001,-0.008
1670268503.559958,-9.277000000000001,-0.047,4.692,0.1081,0.7154,0.1585,0.0,-0.013000000000000001,-0.001
1670268503.599958,-9.23,-0.041,4.787,0.1086,0.7155,0.1607,0.009000000000000001,-0.009000000000000001,-0.002
1670268503.639957,-9.218,-0.064,4.78,0.1043,0.7183,0.1632,0.003,-0.012,-0.007
1670268503.679957,-9.318,-0.105,4.681,0.10880000000000001,0.7187,0.1585,0.019,-0.023,-0.007
1670268503.719957,-9.278,-0.043000000000000003,4.6850000000000005,0.10940000000000001,0.7190000000000001,0.1588,0.018000000000000002,-0.016,-0.007
1670268503.759957,-9.22,-0.081,4.706,0.10690000000000001,0.7177,0.16240000000000002,0.017,-0.009000000000000001,-0.003
1670268503.799957,-9.273,-0.056,4.721,0.1095,0.7180000000000001,0.16140000000000002,0.015,-0.016,-0.003
1670268503.839957,-9.289,-0.026000000000000002,4.724,0.1081,0.7186,0.1627,0.022,-0.017,-0.01
1670268503.879957,-9.285,-0.08600000000000001,4.646,0.1076,0.7183,0.163,0.022,-0.013000000000000001,0.0
1670268503.919957,-9.281,-0.054,4.663,0.10700000000000001,0.7194,0.16110000000000002,0.007,-0.012,0.0
1670268503.959957,-9.27,-0.061,4.672,0.1091,0.7185,0.164,0.012,-0.015,0.0
1670268503.9999568,-9.241,-0.047,4.728,0.10740000000000001,0.7181000000000001,0.16290000000000002,0.014,-0.016,-0.007
1670268504.039957,-9.242,-0.06,4.7330000000000005,0.1114,0.7171000000000001,0.16010000000000002,0.018000000000000002,-0.028,-0.013000000000000001
1670268504.079957,-9.259,-0.065,4.735,0.108,0.7154,0.1613,0.014,-0.024,-0.009000000000000001
1670268504.119957,-9.282,-0.042,4.688,0.1091,0.7178,0.1617,0.007,-0.017,-0.013000000000000001
1670268504.159957,-9.258000000000001,-0.055,4.755,0.10880000000000001,0.7175,0.16140000000000002,0.014,-0.015,-0.005
1670268504.199957,-9.254,-0.11900000000000001,4.686,0.1061,0.7162000000000001,0.16160000000000002,0.013000000000000001,-0.014,-0.003
1670268504.2399569,-9.275,-0.096,4.702,0.10700000000000001,0.7200000000000001,0.1627,0.009000000000000001,-0.02,-0.009000000000000001
1670268504.279957,-9.327,0.039,4.768,0.10830000000000001,0.7176,0.16340000000000002,0.027,-0.011,0.002
1670268504.319957,-9.245000000000001,-0.14100000000000001,4.691,0.1062,0.7173,0.161,0.021,-0.007,-0.007
1670268504.359957,-9.145,-0.068,4.663,0.1087,0.7194,0.1623,0.012,-0.016,-0.009000000000000001
1670268504.399957,-9.281,-0.083,4.658,0.10880000000000001,0.7163,0.16140000000000002,0.002,-0.008,-0.006
1670268504.439957,-9.3,-0.059000000000000004,4.663,0.1102,0.7187,0.1602,0.002,0.007,0.0
1670268504.4799569,-9.23,-0.225,4.696,0.1086,0.7187,0.1603,-0.04,0.021,0.021
1670268504.519957,-9.256,0.0,4.7540000000000004,0.1092,0.7163,0.1607,-0.034,0.015,0.016
1670268504.559957,-9.291,-0.075,4.636,0.11,0.7177,0.161,0.031,-0.012,-0.016
1670268504.599957,-9.215,-0.036000000000000004,4.646,0.1095,0.7180000000000001,0.1593,0.043000000000000003,-0.019,-0.024
1670268504.639957,-9.239,-0.094,4.649,0.1091,0.7213,0.16190000000000002,0.064,-0.055,-0.022
1670268504.679956,-9.275,-0.051000000000000004,4.665,0.1086,0.7176,0.1607,0.045,-0.051000000000000004,-0.021
1670268504.719956,-9.249,-0.032,4.741,0.097,0.7135,0.16290000000000002,0.029,-0.043000000000000003,-0.029
1670268504.759956,-9.299,-0.077,4.688,0.1072,0.7207,0.1633,0.03,-0.025,-0.023
1670268504.7999558,-9.209,-0.163,4.687,0.1063,0.7165,0.1671,0.004,-0.018000000000000002,-0.006
1670268504.839956,-9.239,-0.089,4.705,0.1081,0.7151000000000001,0.1612,0.007,-0.028,-0.013000000000000001
1670268504.879956,-9.253,-0.10400000000000001,4.695,0.1078,0.7191000000000001,0.1602,0.002,-0.023,-0.016
1670268504.919956,-9.233,-0.081,4.769,0.10590000000000001,0.7190000000000001,0.1598,0.007,-0.024,-0.023
1670268504.959956,-9.233,-0.137,4.791,0.11030000000000001,0.7177,0.1608,0.012,-0.02,-0.007
1670268504.999956,-9.243,-0.12,4.734,0.1107,0.7197,0.1603,0.006,-0.016,-0.005
1670268505.0399559,-9.246,-0.117,4.739,0.10110000000000001,0.7182000000000001,0.1613,0.013000000000000001,-0.018000000000000002,-0.013000000000000001
1670268505.079956,-9.246,-0.177,4.805,0.10590000000000001,0.7201000000000001,0.1613,0.014,-0.01,-0.002
1670268505.119956,-9.283,-0.146,4.7330000000000005,0.1061,0.7190000000000001,0.1615,0.016,-0.001,0.01
1670268505.159956,-9.295,-0.053,4.7780000000000005,0.1058,0.7170000000000001,0.1617,0.02,0.002,0.0
1670268505.199956,-9.157,-0.159,4.705,0.10840000000000001,0.7218,0.17880000000000001,0.021,-0.008,-0.005
1670268505.239956,-9.209,-0.108,4.682,0.11,0.7174,0.1778,0.013000000000000001,-0.014,-0.005
1670268505.2799559,-9.265,-0.105,4.745,0.1004,0.7182000000000001,0.1589,0.002,-0.015,-0.001
1670268505.319956,-9.23,-0.167,4.751,0.1056,0.7177,0.17220000000000002,0.005,-0.017,-0.013000000000000001
1670268505.359956,-9.215,-0.07,4.747,0.1091,0.7212000000000001,0.1655,-0.003,-0.016,0.0
1670268505.399956,-9.245000000000001,-0.158,4.76,0.1073,0.7195,0.16190000000000002,0.011,-0.01,-0.001
1670268505.439956,-9.244,-0.091,4.72,0.108,0.7204,0.1613,0.019,-0.011,-0.002
1670268505.479956,-9.216000000000001,-0.137,4.715,0.1051,0.7173,0.1638,0.031,-0.015,-0.006
1670268505.5199559,-9.272,-0.106,4.713,0.1057,0.7179,0.1635,0.022,-0.017,-0.006
1670268505.559956,-9.3,-0.108,4.716,0.1044,0.7183,0.1646,0.022,-0.02,-0.009000000000000001
1670268505.599956,-9.253,-0.123,4.729,0.108,0.7206,0.1632,0.016,-0.01,-0.004
1670268505.639956,-9.226,-0.135,4.748,0.11,0.7171000000000001,0.1615,0.0,-0.008,-0.001
1670268505.679956,-9.238,-0.121,4.759,0.10600000000000001,0.7206,0.161,0.002,-0.007,0.001
1670268505.719955,-9.27,-0.107,4.759,0.1072,0.7193,0.16140000000000002,0.009000000000000001,-0.006,-0.004
1670268505.759955,-9.254,-0.132,4.748,0.1085,0.7184,0.1613,0.012,-0.007,0.0
1670268505.799955,-9.239,-0.171,4.74,0.1068,0.7213,0.16290000000000002,0.003,-0.013000000000000001,0.001
1670268505.8399549,-9.25,-0.096,4.716,0.10990000000000001,0.7217,0.1641,0.019,-0.012,-0.007
1670268505.879955,-9.197000000000001,-0.11,4.748,0.1085,0.7199,0.1635,0.017,-0.017,0.0
1670268505.919955,-9.315,-0.152,4.755,0.10830000000000001,0.7206,0.1625,0.026000000000000002,-0.014,0.002
1670268505.959955,-9.33,-0.116,4.743,0.1078,0.7181000000000001,0.16190000000000002,0.026000000000000002,-0.001,0.004
1670268505.999955,-9.203,-0.08600000000000001,4.7,0.1076,0.7201000000000001,0.1595,0.032,-0.008,-0.016
1670268506.039955,-9.239,-0.15,4.657,0.1073,0.7199,0.1615,0.016,-0.007,-0.007
1670268506.0799549,-9.273,-0.126,4.75,0.1072,0.7191000000000001,0.1648,0.005,-0.001,-0.002
1670268506.119955,-9.282,-0.082,4.773,0.1087,0.7186,0.1652,0.009000000000000001,0.0,-0.001
1670268506.159955,-9.279,-0.167,4.766,0.1073,0.7216,0.1622,0.004,-0.007,-0.011
1670268506.199955,-9.28,-0.05,4.759,0.108,0.7204,0.1632,0.009000000000000001,-0.02,-0.006
1670268506.239955,-9.282,-0.155,4.7330000000000005,0.1091,0.7193,0.16160000000000002,0.014,-0.011,-0.003
1670268506.279955,-9.236,-0.126,4.707,0.1075,0.7206,0.1625,0.02,-0.011,0.003
