timestamp,acc_x,acc_y,acc_z,magn_x,magn_y,magn_z,gyro_x,gyro_y,gyro_z
1670354471.0,-9.651,-0.047,3.956,-0.6476000000000001,-0.3921,0.3401,0.013000000000000001,0.017,-0.033
1670354471.04,-9.614,-0.194,3.948,-0.6485000000000001,-0.3922,0.33940000000000003,0.018000000000000002,0.034,-0.048
1670354471.08,-9.564,-0.108,3.963,-0.6454000000000001,-0.3921,0.3388,0.015,0.023,-0.051000000000000004
1670354471.12,-9.601,-0.135,3.938,-0.6493,-0.3946,0.3522,0.001,0.013000000000000001,-0.044
1670354471.16,-9.614,-0.12,3.947,-0.6471,-0.3936,0.35100000000000003,-0.007,0.018000000000000002,-0.048
1670354471.2,-9.614,-0.129,3.993,-0.6471,-0.3936,0.33230000000000004,0.0,0.019,-0.06
1670354471.24,-9.621,-0.129,3.993,-0.6496000000000001,-0.39330000000000004,0.33230000000000004,0.001,0.022,-0.055
1670354471.28,-9.613,-0.211,3.967,-0.6501,-0.392,0.3279,-0.008,0.018000000000000002,-0.045
1670354471.32,-9.592,-0.051000000000000004,3.996,-0.6516000000000001,-0.39440000000000003,0.32780000000000004,-0.005,0.035,-0.044
1670354471.36,-9.637,-0.186,3.97,-0.6499,-0.39330000000000004,0.3473,0.006,0.032,-0.047
1670354471.4,-9.603,-0.096,3.904,-0.654,-0.3925,0.3355,0.015,0.02,-0.045
1670354471.44,-9.573,-0.12,3.919,-0.6597000000000001,-0.39540000000000003,0.3396,0.005,0.016,-0.042
1670354471.48,-9.606,-0.137,3.944,-0.646,-0.39390000000000003,0.3375,0.009000000000000001,0.011,-0.052000000000000005
1670354471.52,-9.606,-0.11800000000000001,4.006,-0.6477,-0.3941,0.3373,0.005,0.016,-0.059000000000000004
1670354471.559999,-9.64,-0.168,3.93,-0.6474000000000001,-0.3914,0.3376,0.001,0.013000000000000001,-0.051000000000000004
1670354471.599999,-9.576,-0.138,3.966,-0.6588,-0.39740000000000003,0.34950000000000003,-0.01,0.02,-0.051000000000000004
1670354471.639999,-9.625,-0.128,4.006,-0.646,-0.393,0.339,-0.004,0.021,-0.051000000000000004
1670354471.6799989,-9.606,-0.146,3.981,-0.6496000000000001,-0.39080000000000004,0.3372,0.0,0.021,-0.056
1670354471.719999,-9.601,-0.161,3.93,-0.6499,-0.391,0.3385,0.0,0.02,-0.051000000000000004
1670354471.759999,-9.587,-0.162,3.951,-0.6508,-0.3935,0.3388,0.004,0.018000000000000002,-0.046
1670354471.799999,-9.607,-0.114,3.944,-0.6471,-0.3907,0.3387,0.006,0.019,-0.045
1670354471.839999,-9.591000000000001,-0.147,3.942,-0.6488,-0.39130000000000004,0.3391,0.013000000000000001,0.023,-0.053
1670354471.879999,-9.609,-0.17400000000000002,3.942,-0.6465000000000001,-0.394,0.3383,0.001,0.02,-0.049
1670354471.919999,-9.669,-0.169,3.986,-0.6487,-0.393,0.3395,0.001,0.015,-0.028
1670354471.959999,-9.69,-0.044,3.993,-0.6473,-0.3924,0.33590000000000003,0.014,0.021,-0.056
1670354471.999999,-9.575000000000001,-0.18,3.9330000000000003,-0.6479,-0.39180000000000004,0.3388,0.004,0.021,-0.06
1670354472.039999,-9.548,-0.14100000000000001,3.93,-0.6476000000000001,-0.3922,0.33630000000000004,-0.001,0.015,-0.048
1670354472.079999,-9.583,-0.153,3.9410000000000003,-0.6485000000000001,-0.39280000000000004,0.3382,-0.01,0.013000000000000001,-0.044
1670354472.119999,-9.628,-0.131,4.043,-0.6483,-0.3916,0.33680000000000004,0.005,0.008,-0.063
1670354472.159999,-9.651,-0.186,4.065,-0.6472,-0.3922,0.3372,0.013000000000000001,0.013000000000000001,-0.061
1670354472.199999,-9.554,-0.256,3.948,-0.6472,-0.3911,0.3377,-0.007,0.02,-0.043000000000000003
1670354472.239999,-9.619,-0.108,4.011,-0.6479,-0.3915,0.34040000000000004,0.0,0.024,-0.038
1670354472.279999,-9.64,-0.153,4.023,-0.6476000000000001,-0.39280000000000004,0.3375,0.016,0.03,-0.05
1670354472.319999,-9.599,-0.134,3.92,-0.6496000000000001,-0.3905,0.3405,0.012,0.03,-0.048
1670354472.359999,-9.587,-0.168,3.99,-0.6458,-0.39440000000000003,0.3397,0.004,0.023,-0.042
1670354472.399999,-9.612,-0.126,3.9530000000000003,-0.648,-0.3925,0.3392,-0.001,0.021,-0.051000000000000004
1670354472.439999,-9.602,-0.14300000000000002,4.006,-0.6476000000000001,-0.392,0.3391,0.007,0.02,-0.06
1670354472.479999,-9.601,-0.158,3.959,-0.6481,-0.3914,0.3381,-0.003,0.021,-0.052000000000000005
1670354472.519999,-9.584,-0.156,4.008,-0.6493,-0.3935,0.3391,-0.007,0.024,-0.043000000000000003
1670354472.559999,-9.601,-0.162,3.978,-0.6505000000000001,-0.3932,0.3372,0.0,0.03,-0.045
1670354472.599998,-9.594,-0.161,3.952,-0.6474000000000001,-0.3927,0.33840000000000003,-0.005,0.031,-0.05
1670354472.639998,-9.622,-0.177,3.974,-0.6483,-0.3932,0.3387,-0.001,0.027,-0.054
1670354472.679998,-9.594,-0.15,3.9610000000000003,-0.6465000000000001,-0.39390000000000003,0.3408,0.003,0.021,-0.045
1670354472.719998,-9.603,-0.148,3.973,-0.6496000000000001,-0.3921,0.3397,0.001,0.025,-0.045
1670354472.759998,-9.615,-0.157,3.995,-0.6457,-0.3919,0.33680000000000004,0.011,0.027,-0.052000000000000005
1670354472.799998,-9.622,-0.155,3.99,-0.6497,-0.3932,0.3371,0.012,0.023,-0.052000000000000005
1670354472.839998,-9.607,-0.162,3.969,-0.6486000000000001,-0.3902,0.3415,-0.007,0.015,-0.044
1670354472.879998,-9.597,-0.088,4.006,-0.6474000000000001,-0.3931,0.3397,0.0,0.02,-0.034
1670354472.919998,-9.609,-0.218,3.888,-0.6493,-0.39330000000000004,0.3391,0.005,0.027,-0.05
1670354472.959998,-9.521,-0.047,3.969,-0.6461,-0.3914,0.3388,0.019,0.03,-0.056
1670354472.999998,-9.596,-0.193,3.899,-0.6481,-0.3924,0.3372,0.005,0.018000000000000002,-0.05
1670354473.039998,-9.596,-0.155,3.98,-0.6471,-0.393,0.3387,-0.007,0.016,-0.05
1670354473.079998,-9.634,-0.138,3.954,-0.6479,-0.392,0.3382,-0.011,0.008,-0.057
1670354473.119998,-9.555,-0.186,3.959,-0.6471,-0.3905,0.33690000000000003,-0.004,0.012,-0.067
1670354473.159998,-9.559000000000001,-0.14400000000000002,3.946,-0.6522,-0.39230000000000004,0.3402,-0.015,0.011,-0.039
1670354473.199998,-9.604000000000001,-0.224,3.9610000000000003,-0.6458,-0.39280000000000004,0.3383,-0.016,0.034,-0.044
1670354473.239998,-9.613,-0.123,3.975,-0.6464000000000001,-0.39130000000000004,0.3378,0.006,0.028,-0.052000000000000005
1670354473.279998,-9.567,-0.154,3.948,-0.6477,-0.3921,0.34040000000000004,0.012,0.025,-0.047
1670354473.319998,-9.621,-0.148,3.914,-0.6474000000000001,-0.3917,0.33740000000000003,0.001,0.02,-0.043000000000000003
1670354473.359998,-9.602,-0.131,3.956,-0.6446000000000001,-0.3924,0.3391,0.002,0.02,-0.049
1670354473.399998,-9.603,-0.18,3.963,-0.6487,-0.39230000000000004,0.34990000000000004,0.0,0.02,-0.051000000000000004
1670354473.439998,-9.603,-0.18,3.947,-0.6487,-0.39230000000000004,0.35600000000000004,-0.004,0.017,-0.05
1670354473.479998,-9.617,-0.183,3.947,-0.6487,-0.3915,0.35600000000000004,-0.006,0.022,-0.048
1670354473.519998,-9.599,-0.159,3.946,-0.6521,-0.3957,0.33690000000000003,-0.002,0.021,-0.054
1670354473.559998,-9.619,-0.171,3.968,-0.655,-0.3922,0.3136,-0.002,0.015,-0.047
1670354473.599998,-9.621,-0.199,3.974,-0.6562,-0.3927,0.3346,-0.007,0.019,-0.042
1670354473.639997,-9.584,-0.161,3.94,-0.6483,-0.3912,0.338,-0.001,0.015,-0.047
1670354473.679997,-9.585,-0.139,3.9210000000000003,-0.6485000000000001,-0.391,0.3382,0.012,0.016,-0.046
1670354473.719997,-9.591000000000001,-0.158,3.923,-0.6468,-0.39080000000000004,0.3398,0.013000000000000001,0.017,-0.048
1670354473.759997,-9.63,-0.169,3.993,-0.6496000000000001,-0.3906,0.3377,0.008,0.015,-0.048
1670354473.799997,-9.528,-0.20800000000000002,3.975,-0.6482,-0.3917,0.3377,0.005,0.008,-0.045
1670354473.839997,-9.67,-0.155,4.026,-0.6477,-0.3925,0.3413,0.011,0.014,-0.036000000000000004
1670354473.879997,-9.687,-0.14400000000000002,3.984,-0.646,-0.3909,0.3382,0.005,0.026000000000000002,-0.048
1670354473.919997,-9.554,-0.132,3.9450000000000003,-0.6473,-0.3935,0.33940000000000003,0.002,0.025,-0.049
1670354473.959997,-9.576,-0.152,3.936,-0.646,-0.39280000000000004,0.3393,0.002,0.012,-0.047
1670354473.999997,-9.628,-0.146,3.966,-0.6478,-0.38930000000000003,0.3401,0.009000000000000001,0.009000000000000001,-0.058
1670354474.039997,-9.641,-0.157,4.0360000000000005,-0.648,-0.39280000000000004,0.3407,0.006,0.015,-0.06
1670354474.079997,-9.583,-0.195,3.9530000000000003,-0.6464000000000001,-0.3907,0.3398,-0.005,0.02,-0.058
1670354474.119997,-9.53,-0.16,3.934,-0.6441,-0.38970000000000005,0.3408,-0.003,0.008,-0.038
1670354474.159997,-9.612,-0.129,3.987,-0.6472,-0.3899,0.3388,0.005,0.024,-0.047
1670354474.199997,-9.633000000000001,-0.123,3.974,-0.6471,-0.3927,0.338,0.011,0.026000000000000002,-0.054
1670354474.239997,-9.561,-0.17400000000000002,3.9650000000000003,-0.6471,-0.3919,0.33940000000000003,0.011,0.023,-0.042
1670354474.279997,-9.585,-0.171,3.966,-0.6476000000000001,-0.3904,0.33690000000000003,0.002,0.016,-0.043000000000000003
1670354474.319997,-9.606,-0.12,3.9490000000000003,-0.6467,-0.393,0.33990000000000004,0.016,0.014,-0.051000000000000004
1670354474.359997,-9.589,-0.17300000000000001,3.942,-0.6461,-0.39080000000000004,0.3402,0.0,0.021,-0.057
1670354474.399997,-9.6,-0.17400000000000002,4.011,-0.6463,-0.3902,0.3408,-0.001,0.018000000000000002,-0.045
1670354474.439997,-9.593,-0.157,3.969,-0.6488,-0.3916,0.3366,0.001,0.022,-0.049
1670354474.479997,-9.621,-0.164,3.977,-0.6505000000000001,-0.39,0.341,0.007,0.02,-0.056
1670354474.519997,-9.604000000000001,-0.186,4.007,-0.649,-0.3895,0.34140000000000004,0.0,0.021,-0.051000000000000004
1670354474.5599968,-9.639,-0.185,4.008,-0.6456000000000001,-0.3902,0.3403,-0.001,0.02,-0.047
1670354474.599997,-9.597,-0.157,3.989,-0.6487,-0.3912,0.3418,0.003,0.022,-0.051000000000000004
1670354474.639997,-9.599,-0.157,3.974,-0.6456000000000001,-0.39280000000000004,0.33940000000000003,0.008,0.018000000000000002,-0.044
1670354474.679996,-9.6,-0.159,3.9570000000000003,-0.6483,-0.3947,0.3413,0.013000000000000001,0.023,-0.052000000000000005
1670354474.719996,-9.620000000000001,-0.156,3.98,-0.6492,-0.3906,0.33940000000000003,0.007,0.023,-0.047
1670354474.759996,-9.545,-0.165,3.9490000000000003,-0.6482,-0.3927,0.3407,0.001,0.017,-0.051000000000000004
1670354474.799996,-9.567,-0.129,3.999,-0.6489,-0.3896,0.3383,0.004,0.015,-0.04
1670354474.839996,-9.648,-0.198,3.99,-0.6469,-0.3905,0.3426,0.005,0.033,-0.052000000000000005
1670354474.879996,-9.555,-0.129,3.958,-0.6476000000000001,-0.3911,0.3397,0.002,0.021,-0.058
1670354474.919996,-9.592,-0.183,3.936,-0.6489,-0.3921,0.3386,-0.004,0.014,-0.041
1670354474.959996,-9.612,-0.158,3.974,-0.6436000000000001,-0.3936,0.33990000000000004,0.004,0.009000000000000001,-0.049
1670354474.999996,-9.606,-0.146,4.021,-0.6468,-0.3899,0.33790000000000003,0.012,0.016,-0.063
1670354475.039996,-9.6,-0.199,3.975,-0.6476000000000001,-0.39130000000000004,0.33740000000000003,0.005,0.017,-0.054
1670354475.079996,-9.522,-0.168,4.005,-0.6498,-0.3911,0.3375,-0.012,0.024,-0.04
1670354475.119996,-9.652000000000001,-0.186,4.013,-0.6482,-0.3902,0.34040000000000004,0.004,0.027,-0.044
1670354475.159996,-9.618,-0.13,3.996,-0.6483,-0.39330000000000004,0.34290000000000004,0.013000000000000001,0.034,-0.054
1670354475.199996,-9.591000000000001,-0.177,4.015,-0.6478,-0.3919,0.3411,0.013000000000000001,0.025,-0.043000000000000003
1670354475.239996,-9.587,-0.167,3.956,-0.6476000000000001,-0.3905,0.3397,0.005,0.026000000000000002,-0.043000000000000003
1670354475.279996,-9.601,-0.116,3.968,-0.648,-0.3919,0.3395,0.008,0.018000000000000002,-0.048
1670354475.319996,-9.604000000000001,-0.181,3.986,-0.6491,-0.3929,0.33990000000000004,0.01,0.017,-0.054
1670354475.359996,-9.594,-0.183,3.964,-0.6479,-0.3914,0.33630000000000004,-0.006,0.02,-0.04
1670354475.399996,-9.581,-0.14200000000000002,3.9650000000000003,-0.6538,-0.3926,0.33840000000000003,-0.011,0.019,-0.036000000000000004
1670354475.439996,-9.598,-0.14400000000000002,3.944,-0.65,-0.3914,0.3381,-0.005,0.026000000000000002,-0.05
1670354475.479996,-9.603,-0.164,3.989,-0.6494,-0.39080000000000004,0.3425,0.001,0.027,-0.057
1670354475.519996,-9.582,-0.178,3.956,-0.6494,-0.39,0.3402,0.001,0.023,-0.045
1670354475.559996,-9.607,-0.177,3.984,-0.6518,-0.3924,0.3451,-0.001,0.022,-0.048
1670354475.5999959,-9.6,-0.153,3.968,-0.648,-0.38920000000000005,0.3471,0.0,0.019,-0.053
1670354475.639996,-9.593,-0.159,4.0120000000000005,-0.6512,-0.39440000000000003,0.3496,0.004,0.018000000000000002,-0.046
1670354475.679996,-9.593,-0.159,3.9530000000000003,-0.6512,-0.39440000000000003,0.3286,0.008,0.018000000000000002,-0.051000000000000004
1670354475.719995,-9.613,-0.16,3.9530000000000003,-0.6485000000000001,-0.3911,0.3286,0.007,0.023,-0.052000000000000005
1670354475.759995,-9.587,-0.165,3.959,-0.6494,-0.39180000000000004,0.34800000000000003,-0.007,0.023,-0.043000000000000003
1670354475.799995,-9.549,-0.164,3.975,-0.6501,-0.3917,0.33790000000000003,-0.006,0.029,-0.036000000000000004
1670354475.839995,-9.575000000000001,-0.122,3.963,-0.6491,-0.39030000000000004,0.3295,0.001,0.035,-0.047
1670354475.879995,-9.616,-0.213,3.994,-0.6468,-0.3894,0.3395,0.0,0.031,-0.049
1670354475.919995,-9.548,-0.137,3.95,-0.6465000000000001,-0.3899,0.3393,-0.009000000000000001,0.023,-0.046
1670354475.959995,-9.565,-0.183,3.9290000000000003,-0.6478,-0.3912,0.33890000000000003,-0.007,0.019,-0.048
1670354475.999995,-9.617,-0.147,3.989,-0.6484,-0.3915,0.3395,0.006,0.021,-0.051000000000000004
1670354476.039995,-9.615,-0.17200000000000001,3.977,-0.6498,-0.39080000000000004,0.342,0.005,0.022,-0.058
1670354476.079995,-9.559000000000001,-0.21,3.954,-0.6498,-0.3914,0.3393,-0.014,0.024,-0.051000000000000004
1670354476.119995,-9.522,-0.14200000000000002,3.955,-0.6488,-0.3912,0.34,-0.001,0.015,-0.032
1670354476.159995,-9.642,-0.184,3.966,-0.6486000000000001,-0.391,0.3391,0.01,0.025,-0.042
1670354476.199995,-9.621,-0.147,3.971,-0.6472,-0.3916,0.337,0.011,0.03,-0.05
1670354476.239995,-9.575000000000001,-0.171,3.974,-0.6517000000000001,-0.3909,0.3438,0.002,0.019,-0.041
1670354476.279995,-9.613,-0.161,3.979,-0.6457,-0.3932,0.3407,-0.004,0.017,-0.047
1670354476.319995,-9.616,-0.10400000000000001,3.962,-0.6599,-0.39680000000000004,0.34690000000000004,0.007,0.022,-0.059000000000000004
1670354476.359995,-9.6,-0.187,3.962,-0.6452,-0.3914,0.3378,-0.001,0.014,-0.059000000000000004
1670354476.3999949,-9.619,-0.17400000000000002,3.979,-0.6466000000000001,-0.38970000000000005,0.3418,-0.003,0.013000000000000001,-0.046
1670354476.439995,-9.607,-0.182,3.963,-0.6477,-0.3915,0.3371,-0.01,0.026000000000000002,-0.045
1670354476.479995,-9.596,-0.158,3.99,-0.648,-0.38930000000000003,0.34040000000000004,-0.004,0.026000000000000002,-0.047
1670354476.519995,-9.596,-0.17400000000000002,3.966,-0.6544,-0.3937,0.3451,-0.004,0.023,-0.046
1670354476.559995,-9.591000000000001,-0.169,3.9530000000000003,-0.6518,-0.3905,0.3421,0.001,0.02,-0.049
1670354476.599995,-9.6,-0.167,3.9650000000000003,-0.6457,-0.3891,0.3396,0.0,0.026000000000000002,-0.052000000000000005
1670354476.6399949,-9.617,-0.159,3.948,-0.6429,-0.39180000000000004,0.3432,0.0,0.026000000000000002,-0.047
1670354476.679995,-9.588000000000001,-0.266,3.978,-0.6455000000000001,-0.38970000000000005,0.3403,-0.023,0.046,-0.029
1670354476.719995,-9.582,-0.124,3.947,-0.6489,-0.3932,0.3395,0.001,0.028,-0.042
1670354476.759995,-9.549,-0.135,3.9090000000000003,-0.6464000000000001,-0.3924,0.33990000000000004,0.023,0.014,-0.047
1670354476.799995,-9.559000000000001,-0.183,3.964,-0.645,-0.38920000000000005,0.33680000000000004,0.015,0.004,-0.047
1670354476.839994,-9.617,-0.09,3.8890000000000002,-0.6457,-0.3917,0.34,0.023,0.014,-0.04
1670354476.879994,-9.649000000000001,-0.171,3.959,-0.6487,-0.3886,0.3426,0.019,0.012,-0.055
1670354476.919994,-9.533,-0.107,3.9050000000000002,-0.6435000000000001,-0.391,0.3415,0.009000000000000001,0.008,-0.054
1670354476.959994,-9.588000000000001,-0.131,3.9410000000000003,-0.6474000000000001,-0.3915,0.3401,0.001,-0.007,-0.052000000000000005
1670354476.999994,-9.633000000000001,-0.135,3.973,-0.6477,-0.3917,0.3385,0.003,0.0,-0.061
1670354477.039994,-9.597,-0.146,4.054,-0.6449,-0.3905,0.3427,0.005,0.003,-0.065
1670354477.079994,-9.544,-0.219,4.021,-0.6455000000000001,-0.3899,0.34,-0.005,0.01,-0.062
1670354477.119994,-9.496,-0.116,4.023,-0.6477,-0.3925,0.34,-0.013000000000000001,0.007,-0.043000000000000003
1670354477.159994,-9.605,-0.17200000000000001,4.023,-0.6496000000000001,-0.39030000000000004,0.3396,-0.006,0.026000000000000002,-0.063
1670354477.1999938,-9.593,-0.14300000000000002,4.035,-0.6462,-0.3921,0.3416,0.0,0.031,-0.062
1670354477.239994,-9.549,-0.178,3.975,-0.648,-0.3919,0.3416,0.0,0.023,-0.047
1670354477.279994,-9.58,-0.161,3.989,-0.6477,-0.39230000000000004,0.3425,-0.003,0.023,-0.049
1670354477.319994,-9.618,-0.128,3.991,-0.6454000000000001,-0.39180000000000004,0.34040000000000004,0.009000000000000001,0.023,-0.059000000000000004
1670354477.359994,-9.58,-0.199,4.0040000000000004,-0.6471,-0.3909,0.343,0.003,0.019,-0.066
1670354477.399994,-9.581,-0.192,3.9650000000000003,-0.6451,-0.3912,0.3406,-0.007,0.02,-0.055
1670354477.4399939,-9.591000000000001,-0.187,4.003,-0.6465000000000001,-0.3906,0.3403,-0.004,0.024,-0.053
1670354477.479994,-9.619,-0.196,4.04,-0.6477,-0.3926,0.3397,0.001,0.021,-0.054
1670354477.519994,-9.614,-0.20500000000000002,4.029,-0.6471,-0.39080000000000004,0.34500000000000003,-0.006,0.021,-0.053
1670354477.559994,-9.571,-0.189,4.025,-0.6493,-0.3889,0.3396,0.002,0.018000000000000002,-0.049
1670354477.599994,-9.586,-0.186,3.987,-0.6504,-0.3896,0.3416,0.001,0.018000000000000002,-0.049
1670354477.639994,-9.586,-0.163,4.018,-0.6486000000000001,-0.39280000000000004,0.3468,0.011,0.02,-0.048
1670354477.6799939,-9.579,-0.184,3.986,-0.6459,-0.3911,0.3412,0.012,0.019,-0.048
1670354477.719994,-9.557,-0.22,4.009,-0.6489,-0.3904,0.3417,0.002,0.021,-0.051000000000000004
1670354477.759994,-9.625,-0.164,4.009,-0.6477,-0.39,0.3426,0.002,0.007,-0.052000000000000005
1670354477.799994,-9.633000000000001,-0.092,4.026,-0.6481,-0.3906,0.3418,0.012,0.013000000000000001,-0.04
1670354477.839994,-9.556000000000001,-0.20700000000000002,3.969,-0.6499,-0.3884,0.311,0.006,0.021,-0.053
1670354477.879993,-9.533,-0.176,3.9530000000000003,-0.6499,-0.391,0.3245,0.005,0.023,-0.053
1670354477.919993,-9.533,-0.176,3.999,-0.6522,-0.391,0.3245,-0.01,0.016,-0.041
1670354477.959993,-9.566,-0.16,3.999,-0.6485000000000001,-0.3936,0.3453,0.004,0.008,-0.053
1670354477.9999928,-9.589,-0.161,4.033,-0.6472,-0.38920000000000005,0.3412,0.01,0.015,-0.061
1670354478.039993,-9.595,-0.202,4.014,-0.6497,-0.3921,0.3521,0.0,0.019,-0.056
1670354478.079993,-9.56,-0.265,3.99,-0.6475000000000001,-0.3894,0.3406,-0.01,0.019,-0.043000000000000003
1670354478.119993,-9.567,-0.105,4.017,-0.6499,-0.38880000000000003,0.3398,0.0,0.026000000000000002,-0.047
1670354478.159993,-9.607,-0.202,4.045,-0.6501,-0.39080000000000004,0.3447,0.01,0.029,-0.057
1670354478.199993,-9.592,-0.17400000000000002,3.962,-0.6467,-0.3907,0.3437,0.008,0.02,-0.04
1670354478.2399929,-9.53,-0.18,4.015,-0.6469,-0.38880000000000003,0.3462,0.002,0.02,-0.045
1670354478.279993,-9.589,-0.14,3.989,-0.6465000000000001,-0.3895,0.3418,0.014,0.009000000000000001,-0.059000000000000004
1670354478.319993,-9.591000000000001,-0.164,4.037,-0.659,-0.3951,0.35300000000000004,0.013000000000000001,0.012,-0.056
1670354478.359993,-9.572000000000001,-0.198,4.023,-0.6475000000000001,-0.3912,0.3407,0.0,0.012,-0.051000000000000004
1670354478.399993,-9.554,-0.19,4.0,-0.6558,-0.3919,0.34390000000000004,-0.003,0.017,-0.045
1670354478.439993,-9.56,-0.182,4.025,-0.6451,-0.3891,0.3418,-0.003,0.024,-0.051000000000000004
1670354478.4799929,-9.567,-0.199,4.064,-0.6518,-0.3909,0.34390000000000004,0.0,0.022,-0.047
1670354478.519993,-9.586,-0.201,4.038,-0.6489,-0.39080000000000004,0.34540000000000004,-0.005,0.028,-0.049
1670354478.559993,-9.585,-0.166,4.0,-0.6504,-0.3915,0.34190000000000004,-0.001,0.023,-0.048
1670354478.599993,-9.586,-0.168,4.032,-0.646,-0.3924,0.3397,0.003,0.017,-0.046
1670354478.639993,-9.555,-0.17200000000000001,4.0360000000000005,-0.6474000000000001,-0.3922,0.3391,0.009000000000000001,0.028,-0.049
1670354478.679993,-9.582,-0.193,4.0040000000000004,-0.6481,-0.3906,0.3406,-0.001,0.024,-0.046
1670354478.7199929,-9.555,-0.169,3.997,-0.6445000000000001,-0.39330000000000004,0.3432,-0.005,0.014,-0.042
1670354478.759993,-9.585,-0.106,4.0680000000000005,-0.6484,-0.39380000000000004,0.3443,0.01,0.025,-0.043000000000000003
1670354478.799993,-9.619,-0.234,3.984,-0.6489,-0.3915,0.3405,0.003,0.038,-0.058
1670354478.839993,-9.533,-0.148,3.999,-0.6461,-0.3905,0.3386,-0.007,0.019,-0.047
1670354478.879993,-9.578,-0.183,3.99,-0.6472,-0.39080000000000004,0.3398,-0.006,0.02,-0.043000000000000003
1670354478.919992,-9.585,-0.17300000000000001,4.027,-0.6483,-0.3889,0.3413,0.0,0.014,-0.052000000000000005
1670354478.959992,-9.567,-0.184,4.038,-0.6456000000000001,-0.39,0.3428,-0.001,0.01,-0.058
1670354478.999992,-9.564,-0.213,3.989,-0.6485000000000001,-0.3896,0.3405,-0.006,0.015,-0.052000000000000005
1670354479.0399919,-9.511000000000001,-0.162,3.992,-0.6461,-0.3894,0.3411,-0.01,0.02,-0.04
1670354479.079992,-9.611,-0.20500000000000002,4.029,-0.6479,-0.3919,0.33990000000000004,0.007,0.029,-0.04
1670354479.119992,-9.606,-0.14300000000000002,4.023,-0.6477,-0.3919,0.3401,0.015,0.032,-0.05
1670354479.159992,-9.554,-0.17200000000000001,4.002,-0.6455000000000001,-0.3932,0.34,0.005,0.021,-0.04
1670354479.199992,-9.576,-0.17300000000000001,3.984,-0.6474000000000001,-0.3884,0.3397,0.002,0.016,-0.046
1670354479.239992,-9.584,-0.14,3.981,-0.6462,-0.38930000000000003,0.3407,0.007,0.008,-0.056
1670354479.2799919,-9.58,-0.202,4.002,-0.6591,-0.3941,0.34040000000000004,0.0,0.016,-0.061
1670354479.319992,-9.59,-0.198,3.987,-0.6479,-0.3937,0.3423,-0.01,0.018000000000000002,-0.047
1670354479.359992,-9.578,-0.171,4.03,-0.648,-0.3891,0.33940000000000003,-0.009000000000000001,0.02,-0.049
1670354479.399992,-9.582,-0.17300000000000001,3.999,-0.6487,-0.3906,0.3417,-0.007,0.028,-0.051000000000000004
1670354479.439992,-9.585,-0.216,4.0120000000000005,-0.6473,-0.3899,0.3442,-0.004,0.026000000000000002,-0.056
1670354479.479992,-9.552,-0.189,4.0280000000000005,-0.6496000000000001,-0.3891,0.34340000000000004,0.0,0.018000000000000002,-0.052000000000000005
1670354479.5199919,-9.581,-0.183,3.969,-0.6483,-0.3889,0.34040000000000004,-0.003,0.017,-0.045
1670354479.559992,-9.566,-0.201,4.037,-0.6466000000000001,-0.3901,0.3441,0.001,0.018000000000000002,-0.049
1670354479.599992,-9.572000000000001,-0.199,4.014,-0.6469,-0.39180000000000004,0.3411,0.016,0.014,-0.053
1670354479.639992,-9.540000000000001,-0.193,4.041,-0.6477,-0.3917,0.3418,0.007,0.014,-0.051000000000000004
1670354479.679992,-9.625,-0.159,4.085,-0.6497,-0.392,0.3401,0.005,0.021,-0.035
1670354479.719992,-9.642,-0.22,4.0280000000000005,-0.6487,-0.3911,0.3415,0.004,0.028,-0.047
1670354479.759992,-9.485,-0.167,4.002,-0.6471,-0.3894,0.3413,0.003,0.021,-0.055
1670354479.799992,-9.564,-0.181,4.0,-0.648,-0.3916,0.3415,-0.002,0.015,-0.044
1670354479.839992,-9.578,-0.182,4.0040000000000004,-0.6483,-0.3914,0.3421,-0.002,0.016,-0.05
1670354479.879992,-9.586,-0.188,4.074,-0.6502,-0.391,0.3435,0.006,0.02,-0.057
1670354479.919992,-9.518,-0.215,3.978,-0.6482,-0.3905,0.34240000000000004,-0.003,0.024,-0.058
1670354479.959991,-9.478,-0.17400000000000002,4.061,-0.6481,-0.39080000000000004,0.33990000000000004,-0.009000000000000001,0.02,-0.04
1670354479.999991,-9.603,-0.219,4.021,-0.6485000000000001,-0.3906,0.34290000000000004,0.004,0.021,-0.045
1670354480.039991,-9.587,-0.148,3.991,-0.6487,-0.3914,0.3493,0.007,0.021,-0.054
1670354480.0799909,-9.548,-0.19,4.015,-0.6507000000000001,-0.3899,0.3407,0.006,0.017,-0.04
1670354480.119991,-9.548,-0.187,3.99,-0.6507000000000001,-0.3917,0.3623,0.0,0.016,-0.041
1670354480.159991,-9.591000000000001,-0.187,4.046,-0.6479,-0.3917,0.3623,0.006,0.013000000000000001,-0.054
1670354480.199991,-9.592,-0.14300000000000002,4.046,-0.6495000000000001,-0.3906,0.33190000000000003,0.011,0.01,-0.058
1670354480.239991,-9.585,-0.202,4.0360000000000005,-0.65,-0.3917,0.3467,-0.001,0.012,-0.057
1670354480.279991,-9.563,-0.203,4.042,-0.6484,-0.3906,0.3637,-0.002,0.01,-0.05
1670354480.3199909,-9.6,-0.195,4.023,-0.6482,-0.3906,0.35950000000000004,-0.001,0.01,-0.051000000000000004
1670354480.359991,-9.563,-0.192,4.0360000000000005,-0.6468,-0.3909,0.3422,-0.002,0.016,-0.045
1670354480.399991,-9.582,-0.202,4.061,-0.661,-0.39330000000000004,0.34740000000000004,0.007,0.014,-0.047
1670354480.439991,-9.567,-0.20400000000000001,4.034,-0.6491,-0.3895,0.3452,0.008,0.018000000000000002,-0.048
1670354480.479991,-9.571,-0.2,4.083,-0.6501,-0.3902,0.34450000000000003,0.007,0.012,-0.037
1670354480.519991,-9.567,-0.195,4.062,-0.6487,-0.38920000000000005,0.34040000000000004,0.007,0.017,-0.046
1670354480.559991,-9.558,-0.184,4.018,-0.6509,-0.38980000000000004,0.3461,0.021,0.021,-0.045
1670354480.599991,-9.589,-0.157,4.053,-0.6489,-0.3916,0.3426,0.01,0.025,-0.048
1670354480.639991,-9.558,-0.184,4.027,-0.6484,-0.3904,0.3427,0.003,0.026000000000000002,-0.05
1670354480.679991,-9.497,-0.20400000000000001,4.029,-0.648,-0.3909,0.342,0.004,0.013000000000000001,-0.047
1670354480.719991,-9.585,-0.165,4.026,-0.6468,-0.38920000000000005,0.34240000000000004,0.003,0.017,-0.037
1670354480.759991,-9.645,-0.17500000000000002,4.015,-0.6491,-0.3906,0.339,0.001,0.027,-0.056
1670354480.799991,-9.540000000000001,-0.145,4.063,-0.6479,-0.391,0.3443,-0.001,0.024,-0.053
1670354480.839991,-9.536,-0.202,3.995,-0.6466000000000001,-0.3915,0.3443,-0.003,0.015,-0.053
1670354480.879991,-9.583,-0.177,4.032,-0.6476000000000001,-0.39180000000000004,0.3418,0.0,0.011,-0.052000000000000005
1670354480.919991,-9.586,-0.18,4.088,-0.6496000000000001,-0.38820000000000005,0.3432,0.001,0.016,-0.051000000000000004
1670354480.959991,-9.587,-0.181,4.063,-0.6495000000000001,-0.39030000000000004,0.3478,-0.005,0.024,-0.057
1670354480.99999,-9.567,-0.24,4.026,-0.6488,-0.39180000000000004,0.3402,-0.007,0.023,-0.046
1670354481.03999,-9.585,-0.122,4.074,-0.6485000000000001,-0.3884,0.34040000000000004,0.002,0.024,-0.046
1670354481.07999,-9.615,-0.178,4.0200000000000005,-0.646,-0.3889,0.34440000000000004,0.008,0.03,-0.047
1670354481.1199899,-9.542,-0.186,4.018,-0.6475000000000001,-0.3909,0.3407,0.009000000000000001,0.025,-0.048
1670354481.15999,-9.549,-0.181,4.038,-0.6464000000000001,-0.3906,0.34400000000000003,0.002,0.018000000000000002,-0.047
1670354481.19999,-9.573,-0.132,3.981,-0.6483,-0.3907,0.3435,0.009000000000000001,0.015,-0.053
1670354481.23999,-9.573,-0.165,4.079,-0.6471,-0.3885,0.3413,0.013000000000000001,0.016,-0.052000000000000005
1670354481.27999,-9.558,-0.221,4.008,-0.6479,-0.39030000000000004,0.3448,-0.006,0.016,-0.049
1670354481.31999,-9.588000000000001,-0.216,4.048,-0.6459,-0.3919,0.34240000000000004,-0.014,0.02,-0.047
1670354481.35999,-9.557,-0.18,4.053,-0.6454000000000001,-0.3899,0.34190000000000004,-0.005,0.025,-0.053
1670354481.39999,-9.57,-0.20800000000000002,4.055,-0.6469,-0.39230000000000004,0.3417,-0.001,0.024,-0.054
1670354481.43999,-9.567,-0.199,4.007,-0.6483,-0.3902,0.3421,-0.001,0.028,-0.052000000000000005
1670354481.47999,-9.559000000000001,-0.183,4.056,-0.6547000000000001,-0.3925,0.342,0.003,0.021,-0.046
1670354481.51999,-9.559000000000001,-0.18,4.015,-0.655,-0.3902,0.33940000000000003,0.009000000000000001,0.025,-0.048
1670354481.55999,-9.556000000000001,-0.193,4.041,-0.6455000000000001,-0.38930000000000003,0.3431,0.01,0.016,-0.043000000000000003
1670354481.59999,-9.579,-0.185,4.0680000000000005,-0.6462,-0.39130000000000004,0.3437,0.011,0.024,-0.046
1670354481.63999,-9.59,-0.17500000000000002,4.0360000000000005,-0.6478,-0.38880000000000003,0.3452,0.005,0.024,-0.04
1670354481.67999,-9.563,-0.19,4.016,-0.6505000000000001,-0.3895,0.3418,0.001,0.025,-0.049
1670354481.71999,-9.563,-0.214,4.064,-0.6477,-0.39080000000000004,0.3436,-0.002,0.022,-0.05
1670354481.75999,-9.594,-0.171,4.0120000000000005,-0.6516000000000001,-0.3902,0.34190000000000004,-0.007,0.012,-0.043000000000000003
1670354481.79999,-9.609,-0.09,4.049,-0.6466000000000001,-0.3919,0.3431,0.003,0.01,-0.035
1670354481.83999,-9.533,-0.243,4.035,-0.6482,-0.3917,0.34440000000000004,0.009000000000000001,0.024,-0.061
1670354481.87999,-9.539,-0.181,4.0200000000000005,-0.6487,-0.3914,0.3405,0.004,0.022,-0.047
1670354481.91999,-9.534,-0.17200000000000001,4.008,-0.6484,-0.39030000000000004,0.3426,0.0,0.023,-0.035
1670354481.95999,-9.574,-0.131,4.009,-0.6451,-0.3914,0.34290000000000004,-0.003,0.017,-0.051000000000000004
1670354481.99999,-9.578,-0.219,4.047,-0.6464000000000001,-0.3906,0.3408,0.004,0.016,-0.057
1670354482.039989,-9.536,-0.243,4.062,-0.6461,-0.3917,0.3422,-0.002,0.016,-0.054
1670354482.079989,-9.496,-0.133,4.038,-0.6479,-0.3921,0.3466,-0.015,0.025,-0.04
1670354482.119989,-9.582,-0.232,4.045,-0.6494,-0.38920000000000005,0.3458,0.001,0.026000000000000002,-0.043000000000000003
1670354482.1599889,-9.576,-0.169,4.063,-0.6478,-0.3905,0.3413,0.019,0.034,-0.053
1670354482.199989,-9.543000000000001,-0.195,4.078,-0.6465000000000001,-0.3902,0.3432,0.014,0.028,-0.043000000000000003
1670354482.239989,-9.555,-0.16,4.0360000000000005,-0.6497,-0.39130000000000004,0.3418,0.005,0.017,-0.042
1670354482.279989,-9.588000000000001,-0.151,4.0680000000000005,-0.6502,-0.39080000000000004,0.3397,0.006,0.014,-0.05
1670354482.319989,-9.554,-0.202,4.033,-0.6476000000000001,-0.39,0.34,0.007,0.018000000000000002,-0.063
1670354482.359989,-9.554,-0.198,4.029,-0.6557000000000001,-0.39440000000000003,0.3493,-0.008,0.016,-0.05
1670354482.399989,-9.552,-0.198,4.029,-0.6557000000000001,-0.39440000000000003,0.3493,-0.016,0.026000000000000002,-0.047
1670354482.439989,-9.553,-0.184,4.059,-0.646,-0.39,0.3509,-0.004,0.027,-0.051000000000000004
1670354482.479989,-9.589,-0.17,4.042,-0.6616000000000001,-0.393,0.3653,-0.001,0.025,-0.051000000000000004
1670354482.519989,-9.547,-0.203,4.053,-0.6501,-0.39080000000000004,0.3285,-0.005,0.017,-0.048
1670354482.559989,-9.551,-0.21,4.054,-0.6469,-0.39030000000000004,0.34140000000000004,-0.003,0.017,-0.049
1670354482.599989,-9.559000000000001,-0.188,4.07,-0.6478,-0.388,0.3421,0.0,0.011,-0.047
1670354482.639989,-9.573,-0.18,4.0680000000000005,-0.6483,-0.38970000000000005,0.3441,0.009000000000000001,0.013000000000000001,-0.054
1670354482.679989,-9.579,-0.214,4.099,-0.6481,-0.3902,0.3421,0.008,0.017,-0.043000000000000003
1670354482.719989,-9.569,-0.186,4.0600000000000005,-0.6453,-0.39130000000000004,0.34290000000000004,0.005,0.023,-0.047
1670354482.759989,-9.554,-0.198,4.081,-0.6467,-0.3906,0.3426,0.0,0.028,-0.056
1670354482.799989,-9.494,-0.222,4.05,-0.6476000000000001,-0.3905,0.341,-0.009000000000000001,0.015,-0.046
1670354482.839989,-9.598,-0.19,4.045,-0.6461,-0.39030000000000004,0.3446,0.005,0.024,-0.04
1670354482.879989,-9.631,-0.169,4.1,-0.6485000000000001,-0.39,0.3426,0.009000000000000001,0.033,-0.052000000000000005
1670354482.919989,-9.512,-0.195,4.023,-0.6451,-0.389,0.3402,0.007,0.024,-0.051000000000000004
1670354482.959989,-9.546,-0.198,4.038,-0.6472,-0.3912,0.34440000000000004,0.0,0.024,-0.044
1670354482.999989,-9.576,-0.188,3.994,-0.6467,-0.3909,0.3413,0.004,0.016,-0.05
1670354483.039989,-9.553,-0.17200000000000001,4.069,-0.6457,-0.3889,0.343,0.009000000000000001,0.021,-0.06
1670354483.079988,-9.585,-0.222,4.029,-0.6482,-0.389,0.3427,-0.014,0.019,-0.058
1670354483.119988,-9.561,-0.216,4.035,-0.6473,-0.38780000000000003,0.3421,-0.014,0.017,-0.039
1670354483.159988,-9.607,-0.146,4.059,-0.6493,-0.3876,0.3408,0.005,0.024,-0.055
1670354483.199988,-9.596,-0.17300000000000001,4.056,-0.6463,-0.3909,0.34240000000000004,0.005,0.018000000000000002,-0.056
1670354483.239988,-9.527000000000001,-0.211,4.038,-0.6474000000000001,-0.38970000000000005,0.3411,0.002,0.018000000000000002,-0.039
1670354483.279988,-9.563,-0.184,4.029,-0.6462,-0.3885,0.3417,-0.003,0.01,-0.037
1670354483.319988,-9.582,-0.157,4.097,-0.6502,-0.39030000000000004,0.3397,0.015,0.01,-0.061
1670354483.359988,-9.588000000000001,-0.223,4.049,-0.6474000000000001,-0.3891,0.3441,0.004,0.009000000000000001,-0.056
1670354483.399988,-9.564,-0.229,4.065,-0.651,-0.3925,0.3441,-0.01,0.016,-0.046
1670354483.439988,-9.557,-0.191,4.077,-0.6494,-0.38920000000000005,0.3438,-0.001,0.015,-0.044
1670354483.479988,-9.546,-0.214,4.093,-0.6501,-0.3909,0.3462,-0.006,0.026000000000000002,-0.052000000000000005
1670354483.519988,-9.563,-0.21,4.083,-0.651,-0.3924,0.3441,0.0,0.027,-0.047
1670354483.559988,-9.539,-0.213,4.053,-0.6498,-0.391,0.3415,0.0,0.021,-0.046
1670354483.599988,-9.569,-0.18,4.033,-0.6504,-0.39130000000000004,0.3425,0.005,0.015,-0.048
1670354483.639988,-9.546,-0.194,4.069,-0.6505000000000001,-0.3902,0.3457,0.011,0.016,-0.042
1670354483.679988,-9.581,-0.17,4.0440000000000005,-0.649,-0.38930000000000003,0.3405,0.014,0.017,-0.046
1670354483.719988,-9.555,-0.18,4.029,-0.6497,-0.3911,0.34190000000000004,0.019,0.017,-0.052000000000000005
1670354483.759988,-9.493,-0.234,4.037,-0.651,-0.3911,0.3427,0.005,0.019,-0.053
1670354483.799988,-9.579,-0.191,4.081,-0.6492,-0.3916,0.3411,-0.001,0.02,-0.042
1670354483.839988,-9.626,-0.14300000000000002,4.108,-0.6518,-0.39130000000000004,0.3423,0.009000000000000001,0.018000000000000002,-0.045
1670354483.879988,-9.531,-0.188,4.053,-0.6471,-0.3894,0.3385,0.01,0.021,-0.054
1670354483.919988,-9.546,-0.192,4.0760000000000005,-0.6502,-0.38970000000000005,0.3415,-0.002,0.02,-0.053
1670354483.959988,-9.558,-0.176,4.0200000000000005,-0.6493,-0.3899,0.3407,-0.001,0.015,-0.054
1670354483.999988,-9.57,-0.184,4.126,-0.6513,-0.391,0.34040000000000004,0.001,0.019,-0.058
1670354484.039988,-9.589,-0.22,4.071,-0.6488,-0.3932,0.3446,0.001,0.019,-0.053
1670354484.079988,-9.579,-0.25,4.072,-0.6502,-0.3945,0.3436,-0.008,0.016,-0.055
1670354484.119987,-9.594,-0.105,4.07,-0.6502,-0.39030000000000004,0.3425,0.005,0.017,-0.042
1670354484.159987,-9.605,-0.198,4.062,-0.6474000000000001,-0.3894,0.3407,0.009000000000000001,0.021,-0.048
1670354484.199987,-9.542,-0.186,4.053,-0.6508,-0.3909,0.3398,0.011,0.026000000000000002,-0.058
1670354484.239987,-9.548,-0.181,4.035,-0.6497,-0.3919,0.34140000000000004,0.009000000000000001,0.016,-0.041
1670354484.279987,-9.56,-0.17400000000000002,4.095,-0.6501,-0.391,0.3443,0.007,0.011,-0.052000000000000005
1670354484.319987,-9.567,-0.192,4.07,-0.6484,-0.3886,0.3421,0.013000000000000001,0.007,-0.054
1670354484.359987,-9.539,-0.212,4.078,-0.6484,-0.389,0.3452,0.001,0.013000000000000001,-0.059000000000000004
1670354484.399987,-9.546,-0.201,4.047,-0.6489,-0.3885,0.3426,-0.005,0.012,-0.042
1670354484.439987,-9.569,-0.179,4.07,-0.6608,-0.3921,0.3405,-0.002,0.018000000000000002,-0.047
1670354484.479987,-9.545,-0.20800000000000002,4.091,-0.6513,-0.3884,0.3643,0.002,0.023,-0.054
1670354484.519987,-9.551,-0.212,4.077,-0.6527000000000001,-0.3917,0.3553,0.004,0.021,-0.054
1670354484.559987,-9.551,-0.216,4.099,-0.6527000000000001,-0.39180000000000004,0.3425,0.002,0.023,-0.048
1670354484.599987,-9.534,-0.216,4.04,-0.6529,-0.39180000000000004,0.3425,0.005,0.023,-0.051000000000000004
1670354484.639987,-9.531,-0.192,4.04,-0.6512,-0.3906,0.35810000000000003,0.013000000000000001,0.023,-0.047
1670354484.679987,-9.575000000000001,-0.188,4.0920000000000005,-0.651,-0.3895,0.36010000000000003,0.01,0.021,-0.045
1670354484.719987,-9.542,-0.199,4.049,-0.6498,-0.3909,0.3433,0.012,0.017,-0.045
1670354484.759987,-9.525,-0.20500000000000002,4.063,-0.6501,-0.39030000000000004,0.35200000000000004,0.006,0.017,-0.062
1670354484.799987,-9.561,-0.228,4.064,-0.6491,-0.38680000000000003,0.34390000000000004,-0.001,0.022,-0.045
1670354484.839987,-9.575000000000001,-0.201,4.0680000000000005,-0.6514,-0.38930000000000003,0.34240000000000004,0.002,0.013000000000000001,-0.038
1670354484.879987,-9.587,-0.105,4.066,-0.6507000000000001,-0.3916,0.34440000000000004,0.005,0.029,-0.056
1670354484.919987,-9.533,-0.256,4.054,-0.6501,-0.3881,0.3453,0.005,0.024,-0.056
1670354484.959987,-9.521,-0.195,4.048,-0.6525000000000001,-0.392,0.3427,-0.001,0.018000000000000002,-0.037
1670354484.999987,-9.543000000000001,-0.211,4.083,-0.6513,-0.38930000000000003,0.34090000000000004,-0.005,0.015,-0.041
1670354485.0399868,-9.566,-0.167,4.0840000000000005,-0.6502,-0.38730000000000003,0.34340000000000004,0.004,0.016,-0.058
1670354485.079987,-9.588000000000001,-0.234,4.132,-0.651,-0.388,0.34290000000000004,0.004,0.02,-0.053
1670354485.119987,-9.5,-0.24,4.058,-0.651,-0.38720000000000004,0.3402,-0.011,0.022,-0.042
1670354485.159986,-9.499,-0.155,4.132,-0.648,-0.38970000000000005,0.3417,-0.002,0.023,-0.034
1670354485.199986,-9.585,-0.233,4.027,-0.653,-0.3921,0.3478,0.009000000000000001,0.035,-0.053
1670354485.239986,-9.554,-0.196,4.09,-0.6511,-0.38980000000000004,0.34340000000000004,0.02,0.043000000000000003,-0.044
1670354485.279986,-9.554,-0.164,4.0920000000000005,-0.6621,-0.3935,0.3472,0.018000000000000002,0.028,-0.052000000000000005
1670354485.319986,-9.537,-0.192,4.07,-0.6508,-0.3917,0.3423,0.01,0.023,-0.05
1670354485.359986,-9.597,-0.192,4.05,-0.6459,-0.391,0.3416,0.006,0.024,-0.062
1670354485.399986,-9.547,-0.22,4.062,-0.6504,-0.3919,0.3416,-0.004,0.023,-0.051000000000000004
1670354485.439986,-9.55,-0.247,4.059,-0.649,-0.3866,0.34240000000000004,-0.036000000000000004,0.016,-0.04
1670354485.479986,-9.537,-0.226,4.085,-0.6496000000000001,-0.3874,0.34390000000000004,-0.026000000000000002,0.018000000000000002,-0.034
1670354485.519986,-9.578,-0.17,4.053,-0.65,-0.3917,0.3432,-0.006,0.023,-0.057
1670354485.559986,-9.528,-0.212,4.054,-0.6519,-0.39,0.3451,-0.001,0.014,-0.058
1670354485.599986,-9.572000000000001,-0.274,4.074,-0.651,-0.3899,0.343,-0.011,0.012,-0.041
1670354485.639986,-9.536,-0.20400000000000001,4.079,-0.6495000000000001,-0.3906,0.3397,-0.005,0.012,-0.044
1670354485.679986,-9.561,-0.192,4.117,-0.6505000000000001,-0.3905,0.3423,0.012,0.011,-0.044
1670354485.719986,-9.543000000000001,-0.244,4.05,-0.651,-0.3896,0.3426,0.006,0.014,-0.043000000000000003
1670354485.759986,-9.528,-0.21,4.112,-0.6493,-0.3881,0.3408,0.002,0.022,-0.041
1670354485.799986,-9.553,-0.227,4.051,-0.648,-0.39030000000000004,0.3438,0.006,0.017,-0.043000000000000003
1670354485.8399858,-9.559000000000001,-0.213,4.106,-0.6521,-0.38930000000000003,0.34240000000000004,0.003,0.018000000000000002,-0.051000000000000004
1670354485.879986,-9.543000000000001,-0.193,4.099,-0.6502,-0.3907,0.3435,0.003,0.014,-0.047
1670354485.919986,-9.51,-0.225,4.089,-0.6504,-0.3889,0.3432,-0.004,0.013000000000000001,-0.048
1670354485.959986,-9.57,-0.183,4.088,-0.6504,-0.38930000000000003,0.3432,-0.001,0.02,-0.039
1670354485.999986,-9.596,-0.241,4.062,-0.6499,-0.3921,0.3411,0.007,0.031,-0.052000000000000005
1670354486.039986,-9.47,-0.187,4.102,-0.6487,-0.3894,0.3437,0.001,0.029,-0.049
1670354486.0799859,-9.531,-0.213,4.045,-0.6527000000000001,-0.3904,0.3402,0.0,0.017,-0.047
1670354486.119986,-9.547,-0.211,4.11,-0.6516000000000001,-0.3902,0.341,-0.003,0.016,-0.051000000000000004
1670354486.159986,-9.576,-0.225,4.135,-0.6494,-0.3911,0.3417,0.0,0.012,-0.056
1670354486.199986,-9.548,-0.255,4.139,-0.6506000000000001,-0.3896,0.34240000000000004,-0.007,0.019,-0.046
1670354486.239986,-9.534,-0.251,4.07,-0.6492,-0.38780000000000003,0.3407,-0.018000000000000002,0.02,-0.043000000000000003
1670354486.279985,-9.613,-0.147,4.0840000000000005,-0.6516000000000001,-0.3914,0.3427,0.007,0.023,-0.043000000000000003
1670354486.319985,-9.569,-0.192,4.138,-0.6507000000000001,-0.3885,0.34,0.012,0.032,-0.052000000000000005
1670354486.359985,-9.495000000000001,-0.21,4.051,-0.6521,-0.3891,0.34290000000000004,0.012,0.024,-0.041
1670354486.399985,-9.557,-0.231,4.085,-0.6526000000000001,-0.3904,0.343,0.005,0.021,-0.041
1670354486.439985,-9.543000000000001,-0.166,4.094,-0.6487,-0.3894,0.3458,0.009000000000000001,0.01,-0.049
1670354486.479985,-9.555,-0.211,4.093,-0.6534,-0.3885,0.3433,0.01,0.017,-0.06
1670354486.519985,-9.543000000000001,-0.24,4.093,-0.6547000000000001,-0.3886,0.34740000000000004,-0.001,0.023,-0.055
1670354486.559985,-9.551,-0.213,4.128,-0.6524,-0.3886,0.34490000000000004,-0.008,0.023,-0.05
1670354486.599985,-9.56,-0.209,4.0760000000000005,-0.6499,-0.3912,0.3397,-0.005,0.025,-0.048
1670354486.6399848,-9.568,-0.246,4.087,-0.6502,-0.38980000000000004,0.34190000000000004,-0.002,0.026000000000000002,-0.053
1670354486.679985,-9.53,-0.216,4.108,-0.648,-0.38970000000000005,0.3407,-0.003,0.02,-0.05
1670354486.719985,-9.563,-0.20700000000000002,4.073,-0.6499,-0.3881,0.3496,0.003,0.021,-0.045
1670354486.759985,-9.546,-0.20700000000000002,4.118,-0.6527000000000001,-0.3889,0.34940000000000004,0.018000000000000002,0.017,-0.047
1670354486.799985,-9.546,-0.20700000000000002,4.063,-0.6527000000000001,-0.3889,0.3375,0.025,0.014,-0.048
1670354486.839985,-9.548,-0.226,4.063,-0.6518,-0.39080000000000004,0.3375,0.02,0.019,-0.043000000000000003
1670354486.8799849,-9.536,-0.23900000000000002,4.142,-0.6521,-0.38980000000000004,0.3663,0.008,0.008,-0.048
1670354486.919985,-9.539,-0.196,4.091,-0.6517000000000001,-0.391,0.3558,0.009000000000000001,0.021,-0.044
1670354486.959985,-9.558,-0.161,4.117,-0.6494,-0.3905,0.3517,0.006,0.027,-0.05
1670354486.999985,-9.538,-0.262,4.074,-0.6518,-0.3914,0.34340000000000004,0.002,0.018000000000000002,-0.053
1670354487.039985,-9.481,-0.155,4.099,-0.652,-0.39030000000000004,0.34650000000000003,0.001,0.012,-0.049
1670354487.079985,-9.524000000000001,-0.179,4.0360000000000005,-0.6505000000000001,-0.3891,0.3448,-0.005,0.012,-0.057
1670354487.1199849,-9.543000000000001,-0.20500000000000002,4.114,-0.6491,-0.38970000000000005,0.3433,0.008,0.016,-0.055
1670354487.159985,-9.53,-0.20500000000000002,4.085,-0.6503,-0.3905,0.34290000000000004,0.003,0.011,-0.053
1670354487.199985,-9.51,-0.24,4.16,-0.6562,-0.394,0.3482,-0.015,0.021,-0.048
1670354487.239985,-9.418000000000001,-0.177,4.085,-0.6515000000000001,-0.38870000000000005,0.3426,-0.003,0.011,-0.039
1670354487.279985,-9.575000000000001,-0.258,4.072,-0.6611,-0.39380000000000004,0.3467,0.01,0.03,-0.048
1670354487.319984,-9.525,-0.165,4.109,-0.6503,-0.3895,0.34400000000000003,0.01,0.028,-0.05
1670354487.359984,-9.535,-0.22,4.1450000000000005,-0.6518,-0.38980000000000004,0.3463,0.003,0.021,-0.041
1670354487.399984,-9.522,-0.191,4.1,-0.6507000000000001,-0.3911,0.34490000000000004,0.011,0.016,-0.05
1670354487.4399838,-9.567,-0.163,4.105,-0.6599,-0.39330000000000004,0.35350000000000004,0.014,0.018000000000000002,-0.061
1670354487.479984,-9.548,-0.243,4.0760000000000005,-0.6526000000000001,-0.387,0.3442,0.005,0.021,-0.054
1670354487.519984,-9.562,-0.231,4.144,-0.6511,-0.3894,0.3466,-0.004,0.023,-0.049
1670354487.559984,-9.542,-0.195,4.13,-0.6524,-0.38980000000000004,0.34390000000000004,-0.001,0.014,-0.049
1670354487.599984,-9.536,-0.186,4.085,-0.6492,-0.38880000000000003,0.3425,0.003,0.024,-0.052000000000000005
1670354487.639984,-9.533,-0.214,4.1450000000000005,-0.6507000000000001,-0.3925,0.3443,0.008,0.021,-0.056
1670354487.6799839,-9.512,-0.219,4.103,-0.6499,-0.389,0.3436,0.004,0.022,-0.049
1670354487.719984,-9.532,-0.197,4.112,-0.6503,-0.391,0.343,0.007,0.024,-0.05
1670354487.759984,-9.522,-0.184,4.086,-0.6525000000000001,-0.3919,0.3437,0.011,0.017,-0.051000000000000004
1670354487.799984,-9.521,-0.212,4.126,-0.652,-0.3904,0.343,0.005,0.019,-0.051000000000000004
1670354487.839984,-9.539,-0.195,4.095,-0.6496000000000001,-0.39130000000000004,0.34550000000000003,0.005,0.017,-0.051000000000000004
1670354487.879984,-9.482,-0.202,4.133,-0.6509,-0.392,0.3405,-0.006,0.012,-0.048
1670354487.9199839,-9.525,-0.171,4.12,-0.6472,-0.389,0.34500000000000003,0.0,0.006,-0.041
1670354487.959984,-9.541,-0.23700000000000002,4.127,-0.6515000000000001,-0.39180000000000004,0.3416,0.003,0.024,-0.062
1670354487.999984,-9.497,-0.164,4.105,-0.6516000000000001,-0.3906,0.34450000000000003,0.001,0.021,-0.052000000000000005
1670354488.039984,-9.521,-0.247,4.121,-0.6508,-0.39030000000000004,0.3443,-0.007,0.015,-0.042
1670354488.079984,-9.56,-0.201,4.127,-0.6507000000000001,-0.3889,0.3433,-0.003,0.02,-0.046
1670354488.119984,-9.540000000000001,-0.217,4.154,-0.6509,-0.38970000000000005,0.343,0.0,0.018000000000000002,-0.055
1670354488.1599839,-9.559000000000001,-0.219,4.106,-0.6504,-0.3894,0.3441,0.002,0.024,-0.043000000000000003
1670354488.199984,-9.524000000000001,-0.23700000000000002,4.105,-0.651,-0.3909,0.3446,-0.006,0.029,-0.044
1670354488.239984,-9.566,-0.171,4.132,-0.6514,-0.38920000000000005,0.34700000000000003,-0.001,0.025,-0.041
1670354488.279984,-9.579,-0.191,4.119,-0.651,-0.391,0.3443,0.002,0.029,-0.049
1670354488.319984,-9.518,-0.197,4.103,-0.6523,-0.3889,0.3407,0.002,0.034,-0.042
1670354488.359983,-9.518,-0.192,4.074,-0.6499,-0.3929,0.3451,-0.001,0.021,-0.047
1670354488.399983,-9.523,-0.153,4.133,-0.6516000000000001,-0.3899,0.3425,0.008,0.005,-0.052000000000000005
1670354488.439983,-9.551,-0.21,4.118,-0.6526000000000001,-0.3902,0.342,0.005,0.011,-0.058
1670354488.4799829,-9.513,-0.225,4.123,-0.6527000000000001,-0.3901,0.3426,-0.003,0.008,-0.053
1670354488.519983,-9.525,-0.216,4.121,-0.6547000000000001,-0.3942,0.34690000000000004,-0.009000000000000001,0.019,-0.051000000000000004
1670354488.559983,-9.522,-0.212,4.147,-0.6521,-0.3895,0.3427,-0.005,0.025,-0.053
1670354488.599983,-9.533,-0.229,4.164,-0.6483,-0.38970000000000005,0.3432,-0.001,0.025,-0.05
1670354488.639983,-9.528,-0.242,4.115,-0.6525000000000001,-0.39,0.3457,-0.001,0.024,-0.046
1670354488.679983,-9.506,-0.20400000000000001,4.1,-0.651,-0.3895,0.3438,-0.001,0.022,-0.04
1670354488.7199829,-9.529,-0.202,4.117,-0.6491,-0.38780000000000003,0.3431,0.002,0.025,-0.047
1670354488.759983,-9.526,-0.213,4.099,-0.6521,-0.3905,0.3427,0.013000000000000001,0.02,-0.045
1670354488.799983,-9.566,-0.199,4.1450000000000005,-0.6524,-0.3905,0.3438,0.01,0.023,-0.047
1670354488.839983,-9.543000000000001,-0.20700000000000002,4.127,-0.6512,-0.38830000000000003,0.342,0.009000000000000001,0.027,-0.049
1670354488.879983,-9.491,-0.257,4.13,-0.6507000000000001,-0.3894,0.3447,-0.005,0.023,-0.05
1670354488.919983,-9.561,-0.202,4.164,-0.6538,-0.39,0.33940000000000003,-0.008,0.017,-0.052000000000000005
1670354488.9599829,-9.59,-0.155,4.125,-0.6521,-0.3919,0.328,-0.008,0.022,-0.039
1670354488.999983,-9.59,-0.259,4.041,-0.6521,-0.39,0.3375,-0.002,0.028,-0.056
1670354489.039983,-9.488,-0.259,4.041,-0.6515000000000001,-0.39,0.3375,-0.004,0.022,-0.055
1670354489.079983,-9.48,-0.223,4.077,-0.6512,-0.39,0.3462,-0.008,0.021,-0.041
1670354489.119983,-9.558,-0.17500000000000002,4.1290000000000004,-0.6526000000000001,-0.3914,0.3425,0.003,0.028,-0.053
1670354489.159983,-9.561,-0.264,4.094,-0.6522,-0.3901,0.3375,-0.023,0.036000000000000004,-0.036000000000000004
1670354489.199983,-9.573,-0.228,4.1530000000000005,-0.6642,-0.3899,0.34040000000000004,-0.008,0.022,-0.046
1670354489.239983,-9.485,-0.267,4.105,-0.6522,-0.3871,0.34290000000000004,-0.003,0.017,-0.04
1670354489.279983,-9.491,-0.157,4.139,-0.6627000000000001,-0.3905,0.34450000000000003,0.019,0.018000000000000002,-0.049
1670354489.319983,-9.557,-0.28700000000000003,4.106,-0.6525000000000001,-0.3896,0.3436,0.025,0.025,-0.044
1670354489.359983,-9.539,-0.2,4.111,-0.6538,-0.392,0.34450000000000003,0.026000000000000002,0.012,-0.043000000000000003
1670354489.399982,-9.516,-0.20700000000000002,4.105,-0.6502,-0.39130000000000004,0.3435,0.017,0.002,-0.043000000000000003
1670354489.439982,-9.514,-0.19,4.123,-0.6572,-0.39430000000000004,0.3518,0.017,0.0,-0.054
1670354489.479982,-9.568,-0.181,4.142,-0.653,-0.3889,0.3466,0.018000000000000002,0.003,-0.059000000000000004
1670354489.5199819,-9.538,-0.226,4.13,-0.6568,-0.3914,0.34740000000000004,0.002,0.002,-0.058
1670354489.559982,-9.53,-0.217,4.136,-0.6536000000000001,-0.3917,0.34400000000000003,-0.002,0.008,-0.054
1670354489.599982,-9.512,-0.211,4.1770000000000005,-0.6508,-0.3907,0.3435,-0.005,0.018000000000000002,-0.052000000000000005
1670354489.639982,-9.540000000000001,-0.198,4.151,-0.6536000000000001,-0.3901,0.3453,0.001,0.022,-0.055
1670354489.679982,-9.492,-0.229,4.133,-0.6544,-0.3902,0.3447,-0.001,0.025,-0.058
1670354489.719982,-9.518,-0.22,4.143,-0.6531,-0.38870000000000005,0.3438,-0.005,0.022,-0.056
1670354489.7599819,-9.508000000000001,-0.225,4.154,-0.6506000000000001,-0.39,0.3463,0.002,0.021,-0.047
1670354489.799982,-9.527000000000001,-0.20700000000000002,4.114,-0.6517000000000001,-0.3895,0.3437,0.006,0.028,-0.048
1670354489.839982,-9.525,-0.23,4.115,-0.6559,-0.3916,0.34190000000000004,0.006,0.03,-0.046
1670354489.879982,-9.522,-0.244,4.163,-0.6515000000000001,-0.38830000000000003,0.3436,0.01,0.031,-0.053
1670354489.919982,-9.537,-0.266,4.126,-0.6519,-0.38880000000000003,0.3436,-0.006,0.03,-0.05
1670354489.959982,-9.53,-0.232,4.142,-0.6524,-0.3909,0.3433,-0.012,0.027,-0.049
1670354489.9999819,-9.547,-0.161,4.1530000000000005,-0.6516000000000001,-0.3911,0.34290000000000004,0.007,0.016,-0.047
1670354490.039982,-9.524000000000001,-0.281,4.082,-0.6528,-0.39,0.343,0.007,0.026000000000000002,-0.057
1670354490.079982,-9.485,-0.184,4.128,-0.6515000000000001,-0.3895,0.3433,0.0,0.013000000000000001,-0.05
1670354490.119982,-9.524000000000001,-0.243,4.118,-0.6504,-0.3909,0.3432,0.001,0.015,-0.049
1670354490.159982,-9.535,-0.217,4.13,-0.6499,-0.38620000000000004,0.3446,0.0,0.007,-0.054
1670354490.199982,-9.56,-0.252,4.163,-0.6518,-0.3875,0.34400000000000003,0.006,0.01,-0.056
1670354490.239982,-9.506,-0.23800000000000002,4.14,-0.6483,-0.38630000000000003,0.3433,-0.001,0.015,-0.058
1670354490.279982,-9.436,-0.217,4.116,-0.6554,-0.3907,0.3438,-0.004,0.005,-0.04
1670354490.319982,-9.549,-0.275,4.143,-0.6546000000000001,-0.38870000000000005,0.34290000000000004,0.005,0.012,-0.04
1670354490.359982,-9.539,-0.181,4.154,-0.6498,-0.38780000000000003,0.343,0.01,0.031,-0.053
1670354490.399982,-9.498,-0.211,4.139,-0.6519,-0.3902,0.34550000000000003,0.005,0.021,-0.045
1670354490.439981,-9.52,-0.216,4.147,-0.653,-0.3907,0.34440000000000004,0.003,0.012,-0.043000000000000003
1670354490.479981,-9.543000000000001,-0.216,4.1450000000000005,-0.6518,-0.39030000000000004,0.3446,0.009000000000000001,0.012,-0.055
1670354490.519981,-9.551,-0.218,4.146,-0.653,-0.38770000000000004,0.34590000000000004,0.008,0.015,-0.055
1670354490.5599809,-9.507,-0.247,4.105,-0.6549,-0.38870000000000005,0.3431,-0.007,0.016,-0.052000000000000005
1670354490.599981,-9.527000000000001,-0.244,4.1690000000000005,-0.6529,-0.3896,0.34500000000000003,-0.008,0.013000000000000001,-0.048
1670354490.639981,-9.521,-0.231,4.1370000000000005,-0.6516000000000001,-0.3899,0.34490000000000004,0.0,0.024,-0.053
1670354490.679981,-9.516,-0.232,4.1530000000000005,-0.6541,-0.3881,0.3427,0.0,0.021,-0.055
1670354490.719981,-9.52,-0.25,4.147,-0.6533,-0.38920000000000005,0.3433,0.006,0.021,-0.05
1670354490.759981,-9.493,-0.25,4.154,-0.6521,-0.3885,0.3446,0.003,0.013000000000000001,-0.049
1670354490.7999809,-9.504,-0.24,4.16,-0.654,-0.3871,0.3406,0.005,0.018000000000000002,-0.049
1670354490.839981,-9.509,-0.20700000000000002,4.164,-0.6546000000000001,-0.3889,0.3435,0.014,0.015,-0.044
1670354490.879981,-9.511000000000001,-0.244,4.154,-0.6526000000000001,-0.388,0.34500000000000003,0.014,0.02,-0.049
1670354490.919981,-9.565,-0.293,4.212,-0.6515000000000001,-0.38730000000000003,0.3476,0.004,0.018000000000000002,-0.053
1670354490.959981,-9.52,-0.248,4.171,-0.6521,-0.38770000000000004,0.3473,-0.006,0.015,-0.037
1670354490.999981,-9.542,-0.114,4.163,-0.6511,-0.3904,0.3473,0.0,0.015,-0.031
1670354491.039981,-9.524000000000001,-0.281,4.142,-0.6548,-0.3899,0.3427,0.01,0.033,-0.052000000000000005
1670354491.079981,-9.502,-0.20400000000000001,4.147,-0.6514,-0.38870000000000005,0.343,0.006,0.03,-0.046
1670354491.119981,-9.522,-0.23500000000000001,4.147,-0.6494,-0.38880000000000003,0.3463,-0.005,0.019,-0.035
1670354491.159981,-9.535,-0.18,4.138,-0.6534,-0.3904,0.3468,-0.005,0.018000000000000002,-0.046
1670354491.199981,-9.525,-0.214,4.172,-0.6543,-0.3902,0.33490000000000003,0.003,0.023,-0.054
1670354491.239981,-9.525,-0.246,4.17,-0.6543,-0.3971,0.335,0.003,0.024,-0.05
1670354491.279981,-9.475,-0.246,4.17,-0.6662,-0.3971,0.335,-0.014,0.023,-0.047
1670354491.319981,-9.466000000000001,-0.234,4.117,-0.6516000000000001,-0.38870000000000005,0.34290000000000004,-0.009000000000000001,0.024,-0.045
1670354491.359981,-9.539,-0.252,4.139,-0.6551,-0.38980000000000004,0.3589,0.009000000000000001,0.022,-0.048
1670354491.399981,-9.525,-0.196,4.1450000000000005,-0.6579,-0.3894,0.3316,0.014,0.022,-0.054
1670354491.439981,-9.5,-0.229,4.138,-0.6652,-0.3917,0.3608,0.002,0.017,-0.043000000000000003
1670354491.399981,-9.494,-0.223,4.15,-0.6524,-0.38770000000000004,0.3427,0.003,0.016,-0.041
1670354491.439981,-9.552,-0.195,4.139,-0.6586000000000001,-0.3914,0.3477,0.015,0.015,-0.059000000000000004
1670354491.47998,-9.522,-0.216,4.1690000000000005,-0.6509,-0.3894,0.34650000000000003,0.002,0.018000000000000002,-0.053
1670354491.51998,-9.523,-0.256,4.131,-0.6516000000000001,-0.3904,0.3441,-0.012,0.03,-0.043000000000000003
1670354491.55998,-9.55,-0.229,4.165,-0.6521,-0.3921,0.3426,-0.012,0.03,-0.044
1670354491.5999799,-9.521,-0.20800000000000002,4.173,-0.6515000000000001,-0.3894,0.3463,-0.005,0.031,-0.052000000000000005
1670354491.63998,-9.519,-0.228,4.142,-0.6493,-0.3886,0.3411,-0.006,0.032,-0.044
1670354491.67998,-9.522,-0.23800000000000002,4.135,-0.6495000000000001,-0.38880000000000003,0.3433,0.0,0.031,-0.048
1670354491.71998,-9.494,-0.216,4.101,-0.6487,-0.39030000000000004,0.3451,0.004,0.031,-0.046
1670354491.75998,-9.537,-0.232,4.119,-0.6523,-0.3875,0.34540000000000004,0.007,0.024,-0.046
1670354491.79998,-9.514,-0.231,4.144,-0.6502,-0.39030000000000004,0.34440000000000004,0.007,0.027,-0.044
1670354491.83998,-9.496,-0.189,4.071,-0.6472,-0.3884,0.3435,0.007,0.021,-0.052000000000000005
1670354491.87998,-9.497,-0.23900000000000002,4.111,-0.6488,-0.3886,0.3442,0.001,0.014,-0.053
1670354491.91998,-9.571,-0.229,4.117,-0.6494,-0.38830000000000003,0.3421,0.001,0.02,-0.04
1670354491.95998,-9.555,-0.201,4.134,-0.6479,-0.3884,0.34540000000000004,0.003,0.031,-0.051000000000000004
1670354491.99998,-9.458,-0.212,4.086,-0.6479,-0.38770000000000004,0.3426,-0.004,0.023,-0.051000000000000004
1670354492.03998,-9.496,-0.217,4.065,-0.6494,-0.38920000000000005,0.3438,0.003,0.016,-0.046
1670354492.07998,-9.53,-0.233,4.167,-0.6502,-0.3922,0.34600000000000003,0.003,0.015,-0.052000000000000005
1670354492.11998,-9.548,-0.229,4.1530000000000005,-0.6498,-0.391,0.343,0.008,0.015,-0.05
1670354492.15998,-9.53,-0.23700000000000002,4.1530000000000005,-0.6501,-0.3916,0.34540000000000004,-0.003,0.024,-0.042
1670354492.19998,-9.575000000000001,-0.269,4.093,-0.6501,-0.38820000000000005,0.3438,-0.009000000000000001,0.021,-0.04
1670354492.23998,-9.58,-0.146,4.082,-0.6502,-0.3885,0.343,0.008,0.034,-0.04
1670354492.27998,-9.571,-0.20700000000000002,4.142,-0.6516000000000001,-0.3891,0.3438,0.009000000000000001,0.03,-0.046
1670354492.31998,-9.529,-0.24,4.127,-0.6515000000000001,-0.391,0.3418,0.002,0.021,-0.041
1670354492.35998,-9.523,-0.21,4.125,-0.6495000000000001,-0.3885,0.3438,0.0,0.011,-0.043000000000000003
1670354492.39998,-9.549,-0.164,4.13,-0.6565000000000001,-0.3924,0.3433,0.011,0.01,-0.062
1670354492.43998,-9.523,-0.215,4.106,-0.6538,-0.3905,0.3408,0.01,0.011,-0.062
1670354492.47998,-9.529,-0.257,4.125,-0.6494,-0.3902,0.3466,-0.006,0.011,-0.049
1670354492.519979,-9.533,-0.23500000000000001,4.114,-0.6497,-0.39080000000000004,0.34340000000000004,-0.01,0.019,-0.042
1670354492.559979,-9.533,-0.196,4.138,-0.6497,-0.391,0.34440000000000004,-0.004,0.019,-0.049
1670354492.599979,-9.523,-0.241,4.148,-0.6491,-0.38880000000000003,0.34590000000000004,0.005,0.013000000000000001,-0.051000000000000004
1670354492.639979,-9.528,-0.249,4.17,-0.6499,-0.38920000000000005,0.3422,0.0,0.017,-0.048
1670354492.679979,-9.524000000000001,-0.224,4.1290000000000004,-0.6511,-0.3902,0.3446,0.0,0.014,-0.045
1670354492.719979,-9.522,-0.214,4.117,-0.6503,-0.3905,0.34290000000000004,0.01,0.013000000000000001,-0.05
1670354492.759979,-9.519,-0.20500000000000002,4.139,-0.6513,-0.389,0.3418,0.013000000000000001,0.018000000000000002,-0.05
1670354492.799979,-9.528,-0.231,4.136,-0.65,-0.391,0.3438,0.013000000000000001,0.022,-0.046
1670354492.839979,-9.51,-0.233,4.194,-0.6511,-0.3909,0.3501,0.01,0.018000000000000002,-0.048
1670354492.879979,-9.512,-0.202,4.158,-0.6518,-0.3894,0.3436,-0.002,0.013000000000000001,-0.049
1670354492.919979,-9.508000000000001,-0.171,4.154,-0.6508,-0.389,0.3476,0.004,0.015,-0.044
1670354492.959979,-9.542,-0.256,4.127,-0.6494,-0.39030000000000004,0.3458,0.014,0.034,-0.051000000000000004
1670354492.999979,-9.474,-0.193,4.123,-0.6518,-0.39030000000000004,0.3446,0.007,0.02,-0.057
1670354493.039979,-9.513,-0.243,4.122,-0.652,-0.3902,0.3458,-0.004,0.015,-0.048
1670354493.079979,-9.528,-0.21,4.1530000000000005,-0.6514,-0.391,0.3436,-0.003,0.014,-0.052000000000000005
1670354493.119979,-9.53,-0.218,4.194,-0.6507000000000001,-0.38920000000000005,0.34400000000000003,0.0,0.018000000000000002,-0.05
1670354493.159979,-9.509,-0.244,4.173,-0.6502,-0.39,0.3452,0.0,0.022,-0.051000000000000004
1670354493.199979,-9.482,-0.256,4.126,-0.6505000000000001,-0.38870000000000005,0.3437,-0.001,0.019,-0.052000000000000005
1670354493.239979,-9.542,-0.254,4.15,-0.6493,-0.38920000000000005,0.3477,0.004,0.028,-0.051000000000000004
1670354493.279979,-9.549,-0.177,4.202,-0.6541,-0.38870000000000005,0.3327,0.01,0.029,-0.051000000000000004
1670354493.319979,-9.492,-0.241,4.094,-0.6624,-0.3955,0.3361,0.014,0.024,-0.049
1670354493.359979,-9.492,-0.217,4.143,-0.6624,-0.38730000000000003,0.3194,0.009000000000000001,0.024,-0.038
1670354493.399979,-9.5,-0.217,4.143,-0.6525000000000001,-0.38730000000000003,0.3194,0.011,0.016,-0.049
1670354493.439979,-9.543000000000001,-0.181,4.135,-0.6583,-0.3924,0.3507,0.015,0.014,-0.054
1670354493.479979,-9.527000000000001,-0.227,4.113,-0.6537000000000001,-0.38880000000000003,0.3517,0.0,0.024,-0.056
1670354493.519979,-9.523,-0.241,4.15,-0.6544,-0.3899,0.36060000000000003,-0.01,0.02,-0.048
1670354493.559978,-9.508000000000001,-0.23,4.131,-0.6523,-0.3902,0.3543,-0.009000000000000001,0.026000000000000002,-0.047
1670354493.599978,-9.516,-0.20400000000000001,4.103,-0.6486000000000001,-0.38970000000000005,0.34540000000000004,-0.001,0.019,-0.056
1670354493.639978,-9.513,-0.218,4.139,-0.651,-0.38830000000000003,0.34600000000000003,0.0,0.025,-0.054
1670354493.679978,-9.527000000000001,-0.252,4.131,-0.648,-0.3891,0.3443,-0.007,0.019,-0.054
1670354493.719978,-9.509,-0.241,4.195,-0.6526000000000001,-0.3881,0.3432,0.005,0.012,-0.049
1670354493.759978,-9.541,-0.234,4.1610000000000005,-0.6511,-0.38920000000000005,0.3452,0.008,0.012,-0.049
1670354493.799978,-9.524000000000001,-0.223,4.135,-0.6507000000000001,-0.3869,0.3437,0.008,0.018000000000000002,-0.045
1670354493.839978,-9.533,-0.216,4.15,-0.6503,-0.3885,0.3441,0.008,0.021,-0.047
1670354493.879978,-9.528,-0.244,4.139,-0.6526000000000001,-0.3889,0.3446,0.005,0.023,-0.053
1670354493.919978,-9.508000000000001,-0.263,4.171,-0.6496000000000001,-0.38920000000000005,0.34490000000000004,-0.003,0.022,-0.047
1670354493.959978,-9.498,-0.246,4.18,-0.651,-0.3875,0.3466,-0.014,0.025,-0.04
1670354493.999978,-9.513,-0.125,4.114,-0.6496000000000001,-0.38820000000000005,0.3482,0.003,0.021,-0.044
1670354494.039978,-9.540000000000001,-0.296,4.154,-0.6508,-0.3886,0.3422,-0.001,0.023,-0.052000000000000005
1670354494.079978,-9.484,-0.187,4.142,-0.652,-0.3914,0.3462,0.001,0.021,-0.047
1670354494.119978,-9.516,-0.249,4.144,-0.6494,-0.38920000000000005,0.34440000000000004,0.0,0.009000000000000001,-0.043000000000000003
1670354494.159978,-9.542,-0.192,4.152,-0.65,-0.38830000000000003,0.3451,0.008,0.014,-0.052000000000000005
1670354494.199978,-9.542,-0.254,4.204,-0.6537000000000001,-0.39130000000000004,0.3458,0.004,0.022,-0.051000000000000004
1670354494.239978,-9.506,-0.258,4.152,-0.6524,-0.38930000000000003,0.3433,-0.009000000000000001,0.027,-0.046
1670354494.279978,-9.448,-0.228,4.126,-0.6504,-0.3885,0.3451,-0.01,0.02,-0.036000000000000004
1670354494.319978,-9.547,-0.231,4.116,-0.6532,-0.38970000000000005,0.34440000000000004,-0.001,0.029,-0.047
1670354494.359978,-9.528,-0.196,4.155,-0.6504,-0.3891,0.34450000000000003,0.006,0.028,-0.052000000000000005
1670354494.399978,-9.491,-0.244,4.099,-0.6518,-0.3896,0.34650000000000003,-0.001,0.027,-0.049
1670354494.439978,-9.491,-0.217,4.087,-0.6534,-0.38970000000000005,0.34540000000000004,-0.002,0.014,-0.044
1670354494.4799778,-9.532,-0.179,4.138,-0.6484,-0.3902,0.3462,0.008,0.011,-0.05
1670354494.519978,-9.528,-0.23500000000000001,4.159,-0.6512,-0.3885,0.34490000000000004,0.01,0.014,-0.056
1670354494.559978,-9.511000000000001,-0.266,4.128,-0.6535000000000001,-0.39,0.3458,-0.009000000000000001,0.013000000000000001,-0.055
1670354494.599977,-9.521,-0.234,4.13,-0.6529,-0.3895,0.3435,-0.018000000000000002,0.021,-0.042
1670354494.639977,-9.529,-0.222,4.213,-0.651,-0.38830000000000003,0.34440000000000004,-0.007,0.019,-0.051000000000000004
1670354494.679977,-9.527000000000001,-0.257,4.152,-0.6531,-0.387,0.34540000000000004,0.0,0.017,-0.052000000000000005
1670354494.719977,-9.505,-0.253,4.156,-0.6499,-0.3909,0.34650000000000003,-0.005,0.018000000000000002,-0.048
1670354494.759977,-9.498,-0.24,4.135,-0.65,-0.3885,0.34440000000000004,0.0,0.016,-0.053
1670354494.799977,-9.48,-0.231,4.186,-0.6502,-0.389,0.34540000000000004,0.0,0.017,-0.043000000000000003
1670354494.839977,-9.502,-0.247,4.146,-0.6497,-0.3889,0.3466,0.006,0.029,-0.045
1670354494.879977,-9.528,-0.214,4.1690000000000005,-0.6507000000000001,-0.3886,0.3457,0.013000000000000001,0.024,-0.044
1670354494.919977,-9.515,-0.241,4.147,-0.6524,-0.3896,0.34640000000000004,0.014,0.032,-0.045
1670354494.959977,-9.472,-0.271,4.109,-0.6505000000000001,-0.3871,0.34640000000000004,-0.009000000000000001,0.024,-0.042
1670354494.999977,-9.549,-0.232,4.1290000000000004,-0.6494,-0.3889,0.3446,-0.012,0.018000000000000002,-0.04
1670354495.039977,-9.576,-0.164,4.2,-0.6515000000000001,-0.39,0.3441,0.005,0.031,-0.048
1670354495.079977,-9.484,-0.25,4.122,-0.6509,-0.39030000000000004,0.3451,0.005,0.027,-0.057
1670354495.119977,-9.481,-0.249,4.087,-0.6519,-0.3889,0.3451,-0.004,0.016,-0.045
1670354495.159977,-9.544,-0.216,4.133,-0.6519,-0.3875,0.3463,-0.004,0.018000000000000002,-0.038
1670354495.199977,-9.526,-0.218,4.19,-0.6496000000000001,-0.3885,0.34550000000000003,0.006,0.019,-0.053
1670354495.239977,-9.512,-0.28,4.1770000000000005,-0.6492,-0.3864,0.34440000000000004,0.005,0.017,-0.056
1670354495.2799768,-9.494,-0.308,4.157,-0.648,-0.3895,0.34440000000000004,-0.008,0.014,-0.055
1670354495.319977,-9.502,-0.14300000000000002,4.207,-0.6567000000000001,-0.3889,0.3501,-0.003,0.015,-0.041
1670354495.359977,-9.551,-0.29,4.163,-0.6483,-0.3875,0.34590000000000004,0.014,0.03,-0.048
1670354495.399977,-9.518,-0.245,4.139,-0.6512,-0.39130000000000004,0.3476,0.014,0.032,-0.051000000000000004
1670354495.439977,-9.505,-0.23500000000000001,4.1370000000000005,-0.6525000000000001,-0.38820000000000005,0.3457,0.004,0.021,-0.034
1670354495.479977,-9.493,-0.198,4.159,-0.6515000000000001,-0.38670000000000004,0.3436,0.0,0.014,-0.046
1670354495.5199769,-9.548,-0.214,4.148,-0.6519,-0.388,0.3346,0.01,0.01,-0.055
1670354495.559977,-9.51,-0.277,4.119,-0.6513,-0.3879,0.3446,0.002,0.009000000000000001,-0.052000000000000005
1670354495.599977,-9.51,-0.224,4.136,-0.6513,-0.3879,0.33180000000000004,-0.011,0.014,-0.043000000000000003
1670354495.639977,-9.506,-0.224,4.136,-0.6516000000000001,-0.3902,0.33180000000000004,-0.005,0.017,-0.045
1670354495.679977,-9.531,-0.221,4.1610000000000005,-0.6508,-0.3881,0.35250000000000004,0.008,0.024,-0.059000000000000004
1670354495.719976,-9.512,-0.254,4.152,-0.6524,-0.3884,0.35960000000000003,0.003,0.02,-0.053
1670354495.759976,-9.495000000000001,-0.262,4.163,-0.6557000000000001,-0.3869,0.32530000000000003,-0.003,0.017,-0.047
1670354495.799976,-9.513,-0.23800000000000002,4.166,-0.6496000000000001,-0.38820000000000005,0.3462,0.001,0.017,-0.046
1670354495.839976,-9.484,-0.232,4.102,-0.6488,-0.3869,0.3443,0.011,0.018000000000000002,-0.049
1670354495.879976,-9.519,-0.219,4.18,-0.6528,-0.3895,0.3452,0.005,0.019,-0.045
1670354495.919976,-9.508000000000001,-0.251,4.121,-0.6472,-0.38770000000000004,0.34600000000000003,0.008,0.023,-0.055
1670354495.959976,-9.496,-0.274,4.1850000000000005,-0.6505000000000001,-0.3894,0.34600000000000003,0.005,0.021,-0.039
1670354495.999976,-9.551,-0.256,4.167,-0.6519,-0.3889,0.3446,0.009000000000000001,0.014,-0.036000000000000004
1670354496.039976,-9.576,-0.166,4.199,-0.6499,-0.3871,0.34400000000000003,0.013000000000000001,0.026000000000000002,-0.048
1670354496.0799758,-9.485,-0.278,4.104,-0.6485000000000001,-0.3881,0.3467,0.002,0.024,-0.047
1670354496.119976,-9.47,-0.23900000000000002,4.151,-0.6505000000000001,-0.38620000000000004,0.3452,0.003,0.013000000000000001,-0.038
1670354496.159976,-9.517,-0.225,4.142,-0.6599,-0.3919,0.3574,0.0,0.014,-0.049
1670354496.199976,-9.525,-0.226,4.1850000000000005,-0.6527000000000001,-0.38980000000000004,0.3473,0.011,0.018000000000000002,-0.059000000000000004
1670354496.239976,-9.533,-0.259,4.171,-0.6649,-0.3914,0.34400000000000003,0.005,0.022,-0.052000000000000005
1670354496.279976,-9.494,-0.302,4.148,-0.6515000000000001,-0.3886,0.3447,-0.009000000000000001,0.023,-0.046
1670354496.3199759,-9.486,-0.151,4.164,-0.6514,-0.386,0.3453,0.001,0.032,-0.044
1670354496.359976,-9.543000000000001,-0.268,4.155,-0.6527000000000001,-0.39030000000000004,0.3442,0.012,0.026000000000000002,-0.049
1670354496.399976,-9.524000000000001,-0.22,4.158,-0.6532,-0.39130000000000004,0.3446,0.013000000000000001,0.025,-0.044
1670354496.439976,-9.499,-0.24,4.144,-0.6519,-0.38780000000000003,0.3482,0.0,0.02,-0.034
1670354496.479976,-9.515,-0.196,4.164,-0.6538,-0.38780000000000003,0.34600000000000003,0.01,0.014,-0.052000000000000005
1670354496.519976,-9.538,-0.20500000000000002,4.176,-0.6496000000000001,-0.38780000000000003,0.3468,0.013000000000000001,0.012,-0.056
1670354496.5599759,-9.511000000000001,-0.278,4.172,-0.6515000000000001,-0.3911,0.34540000000000004,-0.004,0.021,-0.053
1670354496.599976,-9.508000000000001,-0.234,4.143,-0.652,-0.388,0.3477,-0.004,0.018000000000000002,-0.045
1670354496.639976,-9.516,-0.225,4.173,-0.6518,-0.3915,0.34550000000000003,0.0,0.029,-0.052000000000000005
1670354496.679976,-9.511000000000001,-0.231,4.1690000000000005,-0.6508,-0.38920000000000005,0.34400000000000003,0.005,0.024,-0.055
1670354496.719976,-9.488,-0.262,4.136,-0.6498,-0.38720000000000004,0.34440000000000004,0.004,0.023,-0.051000000000000004
1670354496.759975,-9.527000000000001,-0.261,4.165,-0.6504,-0.3889,0.3463,-0.001,0.019,-0.049
1670354496.799975,-9.514,-0.222,4.133,-0.6505000000000001,-0.38830000000000003,0.3446,0.003,0.019,-0.046
1670354496.839975,-9.531,-0.234,4.1450000000000005,-0.6512,-0.3905,0.34450000000000003,0.011,0.018000000000000002,-0.049
1670354496.879975,-9.516,-0.224,4.146,-0.6513,-0.38970000000000005,0.3431,0.01,0.018000000000000002,-0.046
1670354496.919975,-9.536,-0.22,4.158,-0.6508,-0.3894,0.3451,0.008,0.023,-0.052000000000000005
1670354496.959975,-9.518,-0.23900000000000002,4.171,-0.6502,-0.3856,0.3482,0.004,0.015,-0.054
1670354496.999975,-9.467,-0.23,4.139,-0.6505000000000001,-0.3909,0.3438,-0.004,0.017,-0.049
1670354497.039975,-9.509,-0.211,4.197,-0.6504,-0.3891,0.3451,-0.004,0.015,-0.035
1670354497.079975,-9.561,-0.23500000000000001,4.17,-0.653,-0.3899,0.34740000000000004,0.01,0.02,-0.049
1670354497.1199749,-9.48,-0.217,4.187,-0.6524,-0.391,0.3418,0.008,0.022,-0.055
1670354497.159975,-9.494,-0.26,4.097,-0.6518,-0.3886,0.3417,0.006,0.017,-0.042
1670354497.199975,-9.512,-0.225,4.14,-0.6505000000000001,-0.3885,0.34740000000000004,0.0,0.015,-0.048
1670354497.239975,-9.525,-0.22,4.204,-0.6518,-0.3891,0.34450000000000003,0.004,0.014,-0.054
1670354497.279975,-9.517,-0.26,4.13,-0.6483,-0.38920000000000005,0.3451,0.003,0.025,-0.048
1670354497.319975,-9.519,-0.28400000000000003,4.106,-0.651,-0.3885,0.3482,0.0,0.017,-0.041
1670354497.3599749,-9.546,-0.18,4.124,-0.6541,-0.39030000000000004,0.3462,-0.002,0.027,-0.04
1670354497.399975,-9.528,-0.184,4.184,-0.6513,-0.3896,0.34400000000000003,0.008,0.017,-0.047
1670354497.439975,-9.509,-0.244,4.1450000000000005,-0.6508,-0.3889,0.3476,0.014,0.021,-0.051000000000000004
1670354497.479975,-9.5,-0.24,4.1450000000000005,-0.6534,-0.3886,0.34500000000000003,0.003,0.012,-0.039
1670354497.519975,-9.521,-0.184,4.141,-0.6524,-0.38980000000000004,0.34440000000000004,0.001,0.014,-0.042
1670354497.559975,-9.494,-0.222,4.168,-0.6508,-0.3874,0.3487,0.011,0.01,-0.059000000000000004
1670354497.5999749,-9.534,-0.27,4.163,-0.6557000000000001,-0.3871,0.3436,0.001,0.016,-0.056
1670354497.639975,-9.499,-0.261,4.147,-0.6493,-0.38780000000000003,0.3433,-0.006,0.025,-0.048
1670354497.679975,-9.528,-0.23800000000000002,4.198,-0.6506000000000001,-0.3885,0.3452,-0.016,0.029,-0.04
1670354497.719975,-9.502,-0.178,4.175,-0.6504,-0.3899,0.34490000000000004,0.029,0.037,-0.065
1670354497.759975,-9.506,-0.29,4.136,-0.6507000000000001,-0.38770000000000004,0.35450000000000004,0.027,0.035,-0.058
1670354497.799974,-9.472,-0.257,4.103,-0.6532,-0.3902,0.34,0.002,0.018000000000000002,-0.043000000000000003
1670354497.839974,-9.472,-0.257,4.101,-0.6532,-0.3902,0.3502,-0.002,0.009000000000000001,-0.041
1670354497.879974,-9.508000000000001,-0.20700000000000002,4.101,-0.6521,-0.39030000000000004,0.3502,0.0,0.012,-0.05
1670354497.9199739,-9.488,-0.223,4.17,-0.652,-0.3894,0.3219,-0.012,0.011,-0.041
1670354497.959974,-9.506,-0.261,4.134,-0.6501,-0.3906,0.3436,-0.002,0.016,-0.046
1670354497.999974,-9.478,-0.211,4.176,-0.6532,-0.3875,0.35700000000000004,0.002,0.01,-0.051000000000000004
1670354498.039974,-9.525,-0.224,4.187,-0.6513,-0.3876,0.3483,-0.004,0.013000000000000001,-0.054
1670354498.079974,-9.497,-0.269,4.1610000000000005,-0.6511,-0.3899,0.3456,-0.006,0.007,-0.044
1670354498.119974,-9.457,-0.293,4.2,-0.6503,-0.3861,0.3451,-0.009000000000000001,0.002,-0.049
1670354498.1599739,-9.562,-0.25,4.2170000000000005,-0.6631,-0.3919,0.3552,0.006,0.011,-0.035
1670354498.199974,-9.57,-0.195,4.211,-0.6533,-0.38720000000000004,0.3476,0.009000000000000001,0.02,-0.054
1670354498.239974,-9.473,-0.278,4.208,-0.6529,-0.3886,0.34550000000000003,-0.003,0.027,-0.049
1670354498.279974,-9.463000000000001,-0.263,4.133,-0.6529,-0.38670000000000004,0.3446,-0.012,0.013000000000000001,-0.034
1670354498.319974,-9.495000000000001,-0.217,4.164,-0.6507000000000001,-0.388,0.34450000000000003,0.002,0.015,-0.045
1670354498.359974,-9.519,-0.215,4.272,-0.6505000000000001,-0.3859,0.3457,0.007,0.011,-0.053
1670354498.3999739,-9.516,-0.28,4.198,-0.6647000000000001,-0.3921,0.3553,0.0,0.008,-0.05
1670354498.439974,-9.437,-0.305,4.18,-0.6521,-0.38670000000000004,0.3451,-0.01,0.011,-0.036000000000000004
1670354498.479974,-9.433,-0.15,4.244,-0.6529,-0.38620000000000004,0.3473,0.002,0.017,-0.039
1670354498.519974,-9.515,-0.278,4.189,-0.6524,-0.3871,0.3463,0.018000000000000002,0.024,-0.053
1670354498.559974,-9.475,-0.24,4.255,-0.6516000000000001,-0.3891,0.3482,0.018000000000000002,0.035,-0.044
1670354498.599974,-9.468,-0.233,4.192,-0.6478,-0.38830000000000003,0.3477,0.001,0.023,-0.036000000000000004
1670354498.6399739,-9.494,-0.21,4.2010000000000005,-0.6525000000000001,-0.3876,0.34440000000000004,0.009000000000000001,0.024,-0.044
1670354498.679974,-9.496,-0.202,4.172,-0.6512,-0.3889,0.34590000000000004,0.011,0.019,-0.053
1670354498.719974,-9.494,-0.254,4.189,-0.651,-0.3894,0.34840000000000004,-0.002,0.025,-0.051000000000000004
1670354498.759974,-9.5,-0.219,4.2,-0.649,-0.3907,0.34600000000000003,-0.004,0.029,-0.045
1670354498.799974,-9.529,-0.225,4.166,-0.6488,-0.39030000000000004,0.3448,0.0,0.033,-0.056
1670354498.839973,-9.499,-0.23500000000000001,4.195,-0.6502,-0.3885,0.3477,-0.003,0.034,-0.051000000000000004
1670354498.879973,-9.487,-0.246,4.1690000000000005,-0.6502,-0.388,0.3458,0.0,0.027,-0.047
1670354498.919973,-9.504,-0.229,4.175,-0.649,-0.3881,0.3458,-0.001,0.024,-0.051000000000000004
1670354498.9599729,-9.502,-0.217,4.157,-0.6498,-0.38680000000000003,0.3473,0.003,0.022,-0.045
1670354498.999973,-9.485,-0.214,4.167,-0.651,-0.38920000000000005,0.34600000000000003,0.019,0.016,-0.05
1670354499.039973,-9.512,-0.222,4.166,-0.65,-0.3915,0.34690000000000004,0.014,0.003,-0.049
1670354499.079973,-9.455,-0.23700000000000002,4.1690000000000005,-0.6488,-0.3884,0.3517,0.005,0.009000000000000001,-0.045
1670354499.119973,-9.551,-0.23500000000000001,4.184,-0.6491,-0.38820000000000005,0.34890000000000004,0.003,0.02,-0.042
1670354499.159973,-9.558,-0.20700000000000002,4.211,-0.6516000000000001,-0.39080000000000004,0.3447,0.012,0.031,-0.049
1670354499.1999729,-9.442,-0.199,4.179,-0.6504,-0.3895,0.3462,0.008,0.029,-0.052000000000000005
1670354499.239973,-9.491,-0.234,4.166,-0.6488,-0.3896,0.3473,0.002,0.025,-0.048
1670354499.279973,-9.502,-0.209,4.188,-0.6499,-0.389,0.3482,0.005,0.021,-0.047
1670354499.319973,-9.5,-0.22,4.232,-0.6504,-0.39080000000000004,0.3473,0.004,0.02,-0.05
1670354499.359973,-9.515,-0.209,4.196,-0.6484,-0.38720000000000004,0.3463,0.0,0.021,-0.05
1670354499.399973,-9.491,-0.234,4.173,-0.6527000000000001,-0.3907,0.34690000000000004,-0.004,0.031,-0.054
1670354499.4399729,-9.549,-0.17,4.181,-0.6485000000000001,-0.38880000000000003,0.3471,0.011,0.028,-0.046
1670354499.479973,-9.545,-0.213,4.14,-0.649,-0.39,0.3482,0.002,0.036000000000000004,-0.044
1670354499.519973,-9.485,-0.21,4.176,-0.6514,-0.3902,0.3466,0.008,0.032,-0.05
1670354499.559973,-9.494,-0.188,4.127,-0.6512,-0.39030000000000004,0.3472,0.0,0.018000000000000002,-0.043000000000000003
1670354499.599973,-9.525,-0.192,4.151,-0.6488,-0.3922,0.34640000000000004,0.006,0.018000000000000002,-0.056
1670354499.639973,-9.506,-0.241,4.199,-0.6503,-0.3874,0.3452,0.003,0.02,-0.062
1670354499.679973,-9.497,-0.23500000000000001,4.203,-0.6499,-0.39,0.3451,-0.001,0.013000000000000001,-0.05
1670354499.719973,-9.503,-0.23500000000000001,4.166,-0.6481,-0.38720000000000004,0.34650000000000003,-0.005,0.018000000000000002,-0.046
1670354499.759973,-9.501,-0.22,4.19,-0.6519,-0.3881,0.3467,0.0,0.025,-0.053
1670354499.799973,-9.485,-0.226,4.198,-0.6511,-0.3914,0.3446,0.004,0.024,-0.052000000000000005
1670354499.839973,-9.498,-0.253,4.178,-0.6513,-0.3905,0.34550000000000003,0.008,0.017,-0.046
1670354499.879972,-9.484,-0.21,4.198,-0.6511,-0.38920000000000005,0.3486,0.005,0.012,-0.048
1670354499.919972,-9.497,-0.202,4.182,-0.6485000000000001,-0.3891,0.3448,0.005,0.013000000000000001,-0.043000000000000003
1670354499.959972,-9.492,-0.20800000000000002,4.163,-0.6491,-0.3902,0.3493,0.013000000000000001,0.018000000000000002,-0.051000000000000004
1670354499.9999719,-9.519,-0.232,4.229,-0.6528,-0.3902,0.3582,0.017,0.016,-0.053
1670354500.039972,-9.519,-0.199,4.208,-0.6528,-0.3911,0.3594,0.001,0.016,-0.043000000000000003
1670354500.079972,-9.464,-0.199,4.2090000000000005,-0.6512,-0.3911,0.3594,-0.006,0.02,-0.035
1670354500.119972,-9.469,-0.152,4.2090000000000005,-0.6554,-0.3891,0.3473,0.01,0.022,-0.047
1670354500.159972,-9.508000000000001,-0.259,4.227,-0.6523,-0.3907,0.32030000000000003,0.008,0.02,-0.057
1670354500.199972,-9.467,-0.194,4.179,-0.6533,-0.3924,0.338,-0.004,0.021,-0.05
1670354500.2399719,-9.464,-0.241,4.167,-0.6628000000000001,-0.3942,0.3578,-0.009000000000000001,0.017,-0.045
1670354500.279972,-9.509,-0.214,4.198,-0.6493,-0.38920000000000005,0.3467,0.005,0.016,-0.056
1670354500.319972,-9.491,-0.221,4.242,-0.6526000000000001,-0.3895,0.3518,0.002,0.019,-0.055
1670354500.359972,-9.506,-0.228,4.243,-0.6475000000000001,-0.3884,0.3476,-0.004,0.019,-0.049
1670354500.399972,-9.466000000000001,-0.231,4.179,-0.6491,-0.38930000000000003,0.3556,0.005,0.016,-0.044
1670354500.439972,-9.535,-0.22,4.229,-0.6552,-0.391,0.3513,0.01,0.021,-0.045
1670354500.479972,-9.512,-0.181,4.212,-0.6499,-0.38930000000000003,0.34890000000000004,0.011,0.026000000000000002,-0.053
1670354500.519972,-9.494,-0.232,4.203,-0.6495000000000001,-0.38920000000000005,0.3468,-0.001,0.02,-0.04
1670354500.559972,-9.471,-0.219,4.126,-0.651,-0.38920000000000005,0.34800000000000003,0.003,0.009000000000000001,-0.04
1670354500.599972,-9.491,-0.17300000000000001,4.196,-0.65,-0.39130000000000004,0.3507,0.012,0.008,-0.053
1670354500.639972,-9.503,-0.21,4.214,-0.6507000000000001,-0.39,0.34490000000000004,0.004,0.015,-0.057
1670354500.679972,-9.473,-0.264,4.179,-0.6488,-0.39080000000000004,0.34700000000000003,-0.006,0.018000000000000002,-0.047
1670354500.719972,-9.499,-0.224,4.211,-0.6524,-0.3901,0.3478,-0.012,0.023,-0.043000000000000003
1670354500.759972,-9.479000000000001,-0.20600000000000002,4.195,-0.649,-0.38920000000000005,0.34850000000000003,0.004,0.023,-0.041
1670354500.799972,-9.472,-0.198,4.221,-0.6519,-0.3905,0.34740000000000004,0.007,0.029,-0.049
1670354500.839972,-9.478,-0.223,4.151,-0.652,-0.38970000000000005,0.34790000000000004,-0.002,0.031,-0.052000000000000005
1670354500.879972,-9.502,-0.213,4.215,-0.651,-0.3864,0.34790000000000004,0.009000000000000001,0.027,-0.05
1670354500.919971,-9.502,-0.217,4.208,-0.6521,-0.38880000000000003,0.34940000000000004,0.027,0.017,-0.05
1670354500.959971,-9.509,-0.183,4.1850000000000005,-0.6513,-0.39,0.34800000000000003,0.033,0.028,-0.054
1670354500.999971,-9.505,-0.252,4.1610000000000005,-0.6519,-0.3894,0.3483,0.019,0.022,-0.043000000000000003
1670354501.0399709,-9.472,-0.263,4.2170000000000005,-0.6527000000000001,-0.3891,0.3467,-0.007,0.023,-0.041
1670354501.079971,-9.527000000000001,-0.195,4.178,-0.651,-0.3911,0.34800000000000003,-0.004,0.017,-0.045
1670354501.119971,-9.552,-0.108,4.214,-0.6502,-0.3904,0.3487,0.006,0.028,-0.047
1670354501.159971,-9.467,-0.281,4.142,-0.6486000000000001,-0.38970000000000005,0.3481,-0.003,0.023,-0.046
1670354501.199971,-9.458,-0.17400000000000002,4.142,-0.6501,-0.39,0.3467,-0.02,0.02,-0.045
1670354501.239971,-9.495000000000001,-0.17,4.179,-0.6513,-0.3917,0.3478,-0.008,0.02,-0.056
1670354501.279971,-9.506,-0.168,4.24,-0.6504,-0.3889,0.3491,0.006,0.013000000000000001,-0.058
1670354501.319971,-9.493,-0.254,4.229,-0.6501,-0.3916,0.34690000000000004,0.005,0.016,-0.052000000000000005
1670354501.359971,-9.434000000000001,-0.259,4.202,-0.6526000000000001,-0.3879,0.3493,-0.013000000000000001,0.017,-0.049
1670354501.399971,-9.435,-0.162,4.2090000000000005,-0.6515000000000001,-0.391,0.3488,-0.009000000000000001,0.019,-0.04
1670354501.439971,-9.525,-0.28600000000000003,4.195,-0.6523,-0.38970000000000005,0.34750000000000003,0.004,0.029,-0.049
1670354501.479971,-9.505,-0.19,4.216,-0.6504,-0.38920000000000005,0.34740000000000004,0.003,0.037,-0.044
1670354501.519971,-9.504,-0.23700000000000002,4.191,-0.6522,-0.3899,0.34540000000000004,-0.011,0.051000000000000004,-0.029
1670354501.559971,-9.481,-0.234,4.166,-0.6521,-0.38920000000000005,0.3466,-0.034,0.034,-0.036000000000000004
1670354501.599971,-9.482,-0.126,4.108,-0.6494,-0.38880000000000003,0.3468,-0.014,0.044,-0.041
1670354501.639971,-9.534,-0.218,4.208,-0.6507000000000001,-0.3909,0.3446,0.021,0.011,-0.055
1670354501.679971,-9.478,-0.228,4.167,-0.6502,-0.38970000000000005,0.3417,0.007,0.009000000000000001,-0.043000000000000003
1670354501.719971,-9.516,-0.214,4.171,-0.651,-0.3902,0.34650000000000003,0.011,-0.001,-0.056
1670354501.759971,-9.471,-0.223,4.19,-0.6502,-0.38980000000000004,0.3481,0.021,-0.004,-0.056
1670354501.799971,-9.524000000000001,-0.19,4.1690000000000005,-0.6529,-0.388,0.34700000000000003,0.026000000000000002,0.0,-0.059000000000000004
1670354501.839971,-9.428,-0.267,4.21,-0.6501,-0.39030000000000004,0.3462,0.016,0.009000000000000001,-0.059000000000000004
1670354501.879971,-9.5,-0.201,4.179,-0.6535000000000001,-0.3904,0.3477,0.01,0.002,-0.05
1670354501.919971,-9.458,-0.19,4.206,-0.6543,-0.3924,0.3466,0.007,0.006,-0.049
1670354501.95997,-9.513,-0.199,4.218,-0.6532,-0.39080000000000004,0.3477,0.012,0.013000000000000001,-0.055
1670354501.99997,-9.48,-0.225,4.225,-0.6533,-0.38980000000000004,0.3487,0.009000000000000001,0.018000000000000002,-0.053
1670354502.03997,-9.475,-0.26,4.204,-0.6528,-0.3906,0.3472,0.004,0.02,-0.056
1670354502.07997,-9.509,-0.192,4.208,-0.6521,-0.3891,0.3472,-0.005,0.017,-0.052000000000000005
1670354502.11997,-9.543000000000001,-0.151,4.214,-0.6539,-0.38880000000000003,0.34690000000000004,-0.006,0.025,-0.039
1670354502.15997,-9.455,-0.272,4.2,-0.6516000000000001,-0.389,0.3458,-0.009000000000000001,0.034,-0.055
1670354502.19997,-9.455,-0.213,4.159,-0.6677000000000001,-0.39690000000000003,0.3488,0.001,0.03,-0.051000000000000004
1670354502.23997,-9.483,-0.217,4.181,-0.6544,-0.3912,0.3653,-0.004,0.021,-0.046
1670354502.27997,-9.483,-0.218,4.2700000000000005,-0.6544,-0.39080000000000004,0.3559,0.0,0.025,-0.056
1670354502.31997,-9.518,-0.218,4.2700000000000005,-0.6578,-0.39080000000000004,0.3559,0.006,0.026000000000000002,-0.054
1670354502.35997,-9.53,-0.249,4.206,-0.6532,-0.39030000000000004,0.34940000000000004,0.001,0.021,-0.059000000000000004
1670354502.39997,-9.465,-0.295,4.203,-0.6544,-0.3909,0.336,-0.016,0.029,-0.048
1670354502.43997,-9.464,-0.155,4.165,-0.6573,-0.38830000000000003,0.3442,-0.009000000000000001,0.033,-0.049
1670354502.47997,-9.513,-0.263,4.172,-0.6536000000000001,-0.3901,0.3583,0.007,0.038,-0.064
1670354502.51997,-9.503,-0.203,4.136,-0.6499,-0.3889,0.3463,0.002,0.028,-0.048
1670354502.55997,-9.473,-0.271,4.166,-0.6524,-0.3875,0.34440000000000004,-0.003,0.014,-0.04
1670354502.59997,-9.496,-0.214,4.1850000000000005,-0.6516000000000001,-0.38970000000000005,0.34490000000000004,0.008,0.015,-0.048
1670354502.63997,-9.517,-0.178,4.155,-0.6515000000000001,-0.38920000000000005,0.34490000000000004,0.02,0.013000000000000001,-0.059000000000000004
1670354502.67997,-9.494,-0.274,4.213,-0.6488,-0.3894,0.34840000000000004,0.002,0.023,-0.051000000000000004
1670354502.71997,-9.487,-0.265,4.187,-0.6533,-0.38870000000000005,0.3471,-0.007,0.022,-0.039
1670354502.75997,-9.495000000000001,-0.252,4.175,-0.6498,-0.38980000000000004,0.3462,-0.007,0.024,-0.048
1670354502.79997,-9.5,-0.22,4.197,-0.6512,-0.3886,0.34690000000000004,0.001,0.025,-0.051000000000000004
1670354502.83997,-9.497,-0.267,4.194,-0.654,-0.388,0.3477,0.003,0.021,-0.054
1670354502.87997,-9.497,-0.249,4.1690000000000005,-0.6518,-0.3901,0.3442,-0.005,0.021,-0.041
1670354502.91997,-9.494,-0.233,4.172,-0.6541,-0.3884,0.34590000000000004,0.009000000000000001,0.015,-0.043000000000000003
1670354502.95997,-9.491,-0.222,4.165,-0.6505000000000001,-0.389,0.3446,0.015,0.02,-0.045
1670354502.999969,-9.503,-0.23700000000000002,4.194,-0.6532,-0.38820000000000005,0.3456,0.02,0.013000000000000001,-0.047
1670354503.039969,-9.513,-0.263,4.1850000000000005,-0.6513,-0.3886,0.3441,0.005,0.015,-0.049
1670354503.079969,-9.46,-0.222,4.199,-0.6523,-0.39080000000000004,0.3472,-0.007,0.015,-0.041
1670354503.119969,-9.489,-0.148,4.198,-0.6541,-0.3902,0.3468,0.011,0.008,-0.043000000000000003
1670354503.159969,-9.493,-0.292,4.187,-0.6524,-0.391,0.34590000000000004,0.007,0.022,-0.055
1670354503.199969,-9.455,-0.20500000000000002,4.2,-0.6541,-0.38880000000000003,0.34540000000000004,0.005,0.021,-0.049
1670354503.239969,-9.502,-0.252,4.166,-0.653,-0.3899,0.3482,-0.009000000000000001,0.021,-0.045
1670354503.279969,-9.493,-0.23600000000000002,4.203,-0.6528,-0.38880000000000003,0.34840000000000004,0.0,0.017,-0.052000000000000005
1670354503.319969,-9.539,-0.232,4.228,-0.6524,-0.3904,0.3467,0.008,0.019,-0.054
1670354503.359969,-9.491,-0.253,4.164,-0.654,-0.3906,0.3471,-0.006,0.027,-0.05
1670354503.399969,-9.425,-0.229,4.202,-0.6519,-0.3894,0.34650000000000003,-0.006,0.012,-0.03
1670354503.439969,-9.518,-0.23500000000000001,4.1610000000000005,-0.6512,-0.389,0.34650000000000003,0.0,0.021,-0.041
1670354503.479969,-9.503,-0.202,4.242,-0.6506000000000001,-0.39030000000000004,0.3461,0.014,0.025,-0.062
1670354503.519969,-9.469,-0.25,4.167,-0.6535000000000001,-0.3899,0.3456,0.005,0.021,-0.041
1670354503.559969,-9.46,-0.211,4.204,-0.6527000000000001,-0.3884,0.34400000000000003,0.006,0.021,-0.033
1670354503.599969,-9.497,-0.196,4.203,-0.6518,-0.38980000000000004,0.3472,0.017,0.015,-0.054
1670354503.639969,-9.487,-0.265,4.197,-0.6538,-0.3861,0.34800000000000003,0.012,0.016,-0.057
1670354503.679969,-9.51,-0.265,4.191,-0.6519,-0.3891,0.34850000000000003,-0.011,0.018000000000000002,-0.039
1670354503.719969,-9.5,-0.20800000000000002,4.229,-0.652,-0.3889,0.3435,-0.02,0.016,-0.037
1670354503.759969,-9.494,-0.20500000000000002,4.194,-0.6573,-0.3895,0.3452,-0.008,0.029,-0.051000000000000004
1670354503.799969,-9.496,-0.229,4.1930000000000005,-0.6504,-0.3879,0.3481,-0.003,0.032,-0.056
1670354503.839969,-9.464,-0.246,4.2,-0.6529,-0.389,0.3473,-0.012,0.029,-0.045
1670354503.879969,-9.494,-0.20700000000000002,4.176,-0.652,-0.38830000000000003,0.3463,0.0,0.025,-0.043000000000000003
1670354503.9199688,-9.459,-0.197,4.178,-0.6515000000000001,-0.38770000000000004,0.3473,0.005,0.02,-0.046
1670354503.959969,-9.524000000000001,-0.214,4.19,-0.6539,-0.392,0.3466,0.008,0.021,-0.051000000000000004
1670354503.999969,-9.476,-0.248,4.205,-0.6518,-0.39080000000000004,0.34850000000000003,0.006,0.02,-0.048
1670354504.039968,-9.483,-0.272,4.229,-0.6513,-0.391,0.3462,-0.012,0.019,-0.04
1670354504.079968,-9.497,-0.211,4.244,-0.6538,-0.3876,0.34650000000000003,-0.008,0.016,-0.043000000000000003
1670354504.119968,-9.538,-0.168,4.187,-0.6512,-0.38820000000000005,0.34800000000000003,-0.003,0.023,-0.039
1670354504.159968,-9.482,-0.28500000000000003,4.19,-0.6514,-0.3875,0.3463,-0.005,0.04,-0.047
1670354504.199968,-9.422,-0.213,4.178,-0.6514,-0.3902,0.3477,-0.012,0.033,-0.043000000000000003
1670354504.239968,-9.53,-0.192,4.182,-0.65,-0.3902,0.34690000000000004,-0.005,0.021,-0.043000000000000003
1670354504.279968,-9.494,-0.222,4.199,-0.6494,-0.38970000000000005,0.3467,0.01,0.018000000000000002,-0.049
1670354504.319968,-9.53,-0.258,4.197,-0.6511,-0.38830000000000003,0.3466,0.005,0.02,-0.048
1670354504.359968,-9.446,-0.252,4.159,-0.6639,-0.3914,0.3556,-0.005,0.021,-0.045
1670354504.399968,-9.432,-0.147,4.181,-0.6503,-0.3885,0.34690000000000004,-0.008,0.025,-0.045
1670354504.439968,-9.512,-0.309,4.186,-0.6529,-0.39030000000000004,0.3413,0.008,0.032,-0.055
1670354504.479968,-9.512,-0.222,4.181,-0.6529,-0.38880000000000003,0.34850000000000003,0.005,0.03,-0.052000000000000005
1670354504.519968,-9.506,-0.222,4.1770000000000005,-0.6526000000000001,-0.38880000000000003,0.3538,-0.004,0.022,-0.043000000000000003
1670354504.559968,-9.482,-0.232,4.1770000000000005,-0.6537000000000001,-0.38880000000000003,0.3538,-0.002,0.014,-0.043000000000000003
1670354504.599968,-9.471,-0.201,4.165,-0.6527000000000001,-0.38780000000000003,0.35600000000000004,0.005,0.011,-0.058
1670354504.639968,-9.51,-0.202,4.1850000000000005,-0.6513,-0.39080000000000004,0.36360000000000003,0.004,0.015,-0.057
1670354504.679968,-9.505,-0.246,4.166,-0.6532,-0.3895,0.3602,0.001,0.017,-0.05
1670354504.719968,-9.512,-0.23800000000000002,4.23,-0.6538,-0.3886,0.3427,-0.006,0.021,-0.045
1670354504.759968,-9.503,-0.23700000000000002,4.173,-0.6506000000000001,-0.3895,0.3466,0.002,0.026000000000000002,-0.052000000000000005
1670354504.799968,-9.496,-0.251,4.242,-0.6521,-0.3881,0.3476,0.001,0.034,-0.049
1670354504.839968,-9.515,-0.256,4.224,-0.6504,-0.3881,0.34600000000000003,0.0,0.031,-0.043000000000000003
1670354504.879968,-9.475,-0.23900000000000002,4.198,-0.6505000000000001,-0.3889,0.3481,0.001,0.023,-0.048
1670354504.919968,-9.502,-0.231,4.2170000000000005,-0.6501,-0.38770000000000004,0.34750000000000003,0.012,0.022,-0.049
1670354504.9599679,-9.51,-0.20700000000000002,4.16,-0.6507000000000001,-0.39,0.3456,0.016,0.023,-0.05
1670354504.999968,-9.494,-0.232,4.174,-0.6512,-0.38920000000000005,0.3453,0.013000000000000001,0.018000000000000002,-0.045
1670354505.039968,-9.49,-0.262,4.1850000000000005,-0.6487,-0.3889,0.3451,0.0,0.018000000000000002,-0.042
1670354505.079967,-9.476,-0.162,4.118,-0.6512,-0.3905,0.34700000000000003,0.013000000000000001,0.018000000000000002,-0.047
1670354505.119967,-9.525,-0.17400000000000002,4.183,-0.6558,-0.3924,0.3483,0.012,0.019,-0.054
1670354505.159967,-9.487,-0.281,4.139,-0.6499,-0.38920000000000005,0.34790000000000004,0.005,0.014,-0.046
1670354505.199967,-9.455,-0.17200000000000001,4.148,-0.6643,-0.3935,0.3552,0.005,0.006,-0.051000000000000004
1670354505.239967,-9.5,-0.215,4.208,-0.6499,-0.3885,0.34440000000000004,-0.001,0.007,-0.05
1670354505.279967,-9.518,-0.214,4.212,-0.6507000000000001,-0.3885,0.3457,0.007,0.004,-0.057
1670354505.319967,-9.511000000000001,-0.251,4.22,-0.6544,-0.39,0.34650000000000003,0.007,0.012,-0.057
1670354505.359967,-9.436,-0.268,4.207,-0.6512,-0.3916,0.34500000000000003,-0.004,0.014,-0.05
1670354505.399967,-9.398,-0.17,4.19,-0.6569,-0.39180000000000004,0.3476,0.011,0.01,-0.046
1670354505.439967,-9.518,-0.31,4.241,-0.658,-0.38930000000000003,0.34590000000000004,0.017,0.019,-0.048
1670354505.479967,-9.505,-0.199,4.154,-0.6525000000000001,-0.3895,0.34690000000000004,0.012,0.028,-0.051000000000000004
1670354505.519967,-9.456,-0.226,4.182,-0.6524,-0.38920000000000005,0.3468,0.006,0.019,-0.039
1670354505.559967,-9.49,-0.19,4.149,-0.6513,-0.3911,0.3482,0.006,0.018000000000000002,-0.049
1670354505.599967,-9.511000000000001,-0.179,4.1930000000000005,-0.6521,-0.3899,0.3458,0.012,0.017,-0.056
1670354505.639967,-9.5,-0.26,4.187,-0.6516000000000001,-0.3886,0.34550000000000003,0.009000000000000001,0.017,-0.055
1670354505.679967,-9.483,-0.222,4.19,-0.6522,-0.3911,0.34690000000000004,-0.004,0.024,-0.051000000000000004
1670354505.719967,-9.525,-0.213,4.173,-0.651,-0.3891,0.3458,-0.004,0.022,-0.049
1670354505.7599669,-9.491,-0.232,4.198,-0.6521,-0.3902,0.34540000000000004,0.0,0.027,-0.053
1670354505.799967,-9.484,-0.23800000000000002,4.188,-0.6523,-0.3901,0.3468,0.0,0.021,-0.051000000000000004
1670354505.839967,-9.49,-0.23900000000000002,4.1930000000000005,-0.6501,-0.3886,0.3467,0.004,0.018000000000000002,-0.053
1670354505.879967,-9.5,-0.224,4.197,-0.6559,-0.3884,0.34600000000000003,0.003,0.02,-0.047
1670354505.919967,-9.508000000000001,-0.228,4.203,-0.6507000000000001,-0.38980000000000004,0.3466,0.012,0.018000000000000002,-0.044
1670354505.959967,-9.507,-0.221,4.183,-0.6529,-0.3896,0.34550000000000003,0.015,0.02,-0.045
1670354505.9999669,-9.499,-0.217,4.198,-0.6542,-0.3901,0.3436,0.018000000000000002,0.026000000000000002,-0.042
1670354506.039967,-9.484,-0.253,4.175,-0.653,-0.3901,0.3452,0.009000000000000001,0.026000000000000002,-0.051000000000000004
1670354506.079967,-9.487,-0.251,4.157,-0.6514,-0.3905,0.34400000000000003,0.002,0.019,-0.046
1670354506.119967,-9.545,-0.217,4.21,-0.6542,-0.3905,0.3468,-0.002,0.012,-0.045
1670354506.159967,-9.574,-0.132,4.226,-0.6509,-0.38880000000000003,0.3468,0.003,0.014,-0.043000000000000003
1670354506.199966,-9.512,-0.262,4.176,-0.6512,-0.39030000000000004,0.34690000000000004,0.001,0.022,-0.055
1670354506.239966,-9.451,-0.227,4.155,-0.6524,-0.38920000000000005,0.3437,-0.004,0.024,-0.047
1670354506.279966,-9.5,-0.229,4.1610000000000005,-0.6503,-0.38920000000000005,0.3447,-0.005,0.021,-0.039
1670354506.319966,-9.503,-0.196,4.244,-0.6525000000000001,-0.3874,0.3466,0.0,0.027,-0.055
1670354506.359966,-9.53,-0.265,4.1930000000000005,-0.6516000000000001,-0.38830000000000003,0.3458,0.008,0.022,-0.058
1670354506.399966,-9.449,-0.292,4.215,-0.6534,-0.393,0.34890000000000004,-0.005,0.024,-0.052000000000000005
1670354506.439966,-9.462,-0.167,4.1850000000000005,-0.6566000000000001,-0.3864,0.3527,-0.009000000000000001,0.023,-0.041
1670354506.479966,-9.494,-0.277,4.173,-0.6527000000000001,-0.3902,0.3453,0.005,0.025,-0.051000000000000004
1670354506.519966,-9.517,-0.219,4.166,-0.6508,-0.39080000000000004,0.3483,0.011,0.028,-0.054
1670354506.5599658,-9.477,-0.221,4.147,-0.6531,-0.3901,0.34690000000000004,0.0,0.025,-0.043000000000000003
1670354506.599966,-9.492,-0.189,4.154,-0.6501,-0.39,0.3432,0.004,0.015,-0.038
1670354506.639966,-9.505,-0.195,4.194,-0.6535000000000001,-0.3895,0.3346,0.006,0.007,-0.056
1670354506.679966,-9.494,-0.26,4.1370000000000005,-0.6542,-0.38780000000000003,0.3356,0.004,0.01,-0.055
1670354506.719966,-9.494,-0.232,4.1770000000000005,-0.6542,-0.38780000000000003,0.3402,-0.006,0.014,-0.051000000000000004
1670354506.759966,-9.491,-0.232,4.1770000000000005,-0.6544,-0.39,0.3402,-0.011,0.018000000000000002,-0.046
1670354506.7999659,-9.509,-0.226,4.1850000000000005,-0.6556000000000001,-0.38880000000000003,0.3402,-0.002,0.019,-0.052000000000000005
1670354506.839966,-9.503,-0.218,4.1930000000000005,-0.6505000000000001,-0.391,0.3435,0.003,0.02,-0.049
1670354506.879966,-9.481,-0.23,4.204,-0.6515000000000001,-0.389,0.33180000000000004,0.002,0.018000000000000002,-0.054
1670354506.919966,-9.497,-0.232,4.223,-0.6527000000000001,-0.3911,0.3487,0.004,0.02,-0.049
1670354506.959966,-9.494,-0.228,4.196,-0.6552,-0.3895,0.34950000000000003,0.0,0.022,-0.047
1670354506.999966,-9.494,-0.227,4.184,-0.6523,-0.3899,0.3463,0.007,0.024,-0.039
1670354507.0399659,-9.496,-0.217,4.187,-0.6512,-0.3905,0.3476,0.003,0.019,-0.049
1670354507.079966,-9.5,-0.215,4.175,-0.6501,-0.38820000000000005,0.3438,-0.003,0.024,-0.044
1670354507.119966,-9.497,-0.23,4.214,-0.6577000000000001,-0.3874,0.3507,0.002,0.02,-0.05
1670354507.159966,-9.478,-0.247,4.184,-0.6527000000000001,-0.388,0.3461,-0.009000000000000001,0.013000000000000001,-0.054
1670354507.199966,-9.478,-0.219,4.166,-0.6605000000000001,-0.39280000000000004,0.3447,-0.008,0.014,-0.044
1670354507.239965,-9.483,-0.146,4.182,-0.6525000000000001,-0.38970000000000005,0.3441,0.004,0.014,-0.039
1670354507.279965,-9.512,-0.304,4.21,-0.6533,-0.3902,0.34990000000000004,0.006,0.029,-0.051000000000000004
1670354507.319965,-9.446,-0.216,4.18,-0.651,-0.38920000000000005,0.34490000000000004,-0.001,0.027,-0.043000000000000003
1670354507.3599648,-9.496,-0.246,4.208,-0.6542,-0.38830000000000003,0.34740000000000004,-0.004,0.017,-0.04
1670354507.399965,-9.549,-0.222,4.229,-0.6527000000000001,-0.3879,0.3446,0.009000000000000001,0.015,-0.059000000000000004
1670354507.439965,-9.506,-0.24,4.22,-0.6526000000000001,-0.3885,0.3446,0.002,0.023,-0.064
1670354507.479965,-9.485,-0.252,4.1930000000000005,-0.6544,-0.3894,0.3472,-0.003,0.014,-0.046
1670354507.519965,-9.468,-0.231,4.1610000000000005,-0.6533,-0.3886,0.3483,-0.01,0.018000000000000002,-0.034
1670354507.559965,-9.534,-0.20800000000000002,4.163,-0.6517000000000001,-0.3874,0.3482,0.005,0.022,-0.047
1670354507.5999649,-9.527000000000001,-0.201,4.195,-0.6543,-0.3909,0.3447,0.011,0.029,-0.056
1670354507.639965,-9.463000000000001,-0.249,4.1930000000000005,-0.6543,-0.3889,0.3468,0.002,0.022,-0.036000000000000004
1670354507.679965,-9.5,-0.20700000000000002,4.17,-0.651,-0.39030000000000004,0.3461,-0.002,0.021,-0.041
1670354507.719965,-9.517,-0.177,4.221,-0.6537000000000001,-0.3895,0.3477,0.014,0.022,-0.056
1670354507.759965,-9.514,-0.252,4.23,-0.6551,-0.38930000000000003,0.34600000000000003,0.002,0.027,-0.057
1670354507.799965,-9.49,-0.27,4.1930000000000005,-0.6557000000000001,-0.3904,0.3452,-0.019,0.027,-0.042
1670354507.8399649,-9.521,-0.217,4.19,-0.6527000000000001,-0.38720000000000004,0.34540000000000004,-0.016,0.034,-0.041
1670354507.879965,-9.497,-0.228,4.176,-0.6538,-0.39030000000000004,0.3427,-0.007,0.032,-0.054
1670354507.919965,-9.482,-0.249,4.2090000000000005,-0.6497,-0.3884,0.3466,-0.003,0.026000000000000002,-0.052000000000000005
1670354507.959965,-9.495000000000001,-0.25,4.144,-0.6525000000000001,-0.38670000000000004,0.3476,-0.003,0.009000000000000001,-0.047
1670354507.999965,-9.488,-0.24,4.16,-0.6496000000000001,-0.3861,0.3466,0.002,0.014,-0.046
1670354508.039965,-9.519,-0.225,4.178,-0.6515000000000001,-0.3906,0.3458,0.01,0.013000000000000001,-0.044
1670354508.0799649,-9.496,-0.23700000000000002,4.149,-0.6512,-0.38920000000000005,0.3463,0.01,0.012,-0.056
1670354508.119965,-9.475,-0.23900000000000002,4.208,-0.6523,-0.388,0.34740000000000004,0.009000000000000001,0.017,-0.052000000000000005
1670354508.159965,-9.485,-0.231,4.179,-0.6534,-0.38770000000000004,0.3457,0.005,0.014,-0.042
1670354508.199965,-9.525,-0.234,4.1610000000000005,-0.653,-0.3905,0.34840000000000004,-0.003,0.017,-0.03
1670354508.239965,-9.513,-0.25,4.197,-0.654,-0.3895,0.3443,0.0,0.033,-0.051000000000000004
1670354508.279964,-9.461,-0.199,4.178,-0.6524,-0.3875,0.3422,0.004,0.021,-0.045
1670354508.319964,-9.496,-0.226,4.166,-0.6521,-0.387,0.3426,0.002,0.019,-0.044
1670354508.359964,-9.519,-0.202,4.206,-0.651,-0.3917,0.3451,0.007,0.017,-0.042
1670354508.3999639,-9.508000000000001,-0.20500000000000002,4.187,-0.6516000000000001,-0.3915,0.3501,0.009000000000000001,0.021,-0.059000000000000004
1670354508.439964,-9.445,-0.245,4.19,-0.6509,-0.38970000000000005,0.34900000000000003,-0.001,0.026000000000000002,-0.052000000000000005
1670354508.479964,-9.444,-0.212,4.2,-0.6518,-0.3886,0.34600000000000003,-0.014,0.018000000000000002,-0.041
1670354508.519964,-9.53,-0.233,4.194,-0.6506000000000001,-0.389,0.3452,0.009000000000000001,0.032,-0.049
1670354508.559964,-9.5,-0.20500000000000002,4.1850000000000005,-0.6511,-0.38820000000000005,0.3452,0.012,0.027,-0.059000000000000004
1670354508.599964,-9.49,-0.231,4.1930000000000005,-0.6521,-0.38920000000000005,0.3468,0.009000000000000001,0.025,-0.038
1670354508.6399639,-9.47,-0.20600000000000002,4.176,-0.6502,-0.39030000000000004,0.3422,0.008,0.015,-0.032
1670354508.679964,-9.508000000000001,-0.188,4.1930000000000005,-0.6535000000000001,-0.38970000000000005,0.3482,0.012,0.018000000000000002,-0.052000000000000005
1670354508.719964,-9.519,-0.24,4.152,-0.6513,-0.388,0.3461,0.013000000000000001,0.015,-0.062
1670354508.759964,-9.49,-0.222,4.188,-0.6514,-0.3902,0.3473,0.003,0.013000000000000001,-0.047
1670354508.799964,-9.49,-0.226,4.167,-0.6526000000000001,-0.3896,0.3453,-0.006,0.018000000000000002,-0.047
1670354508.839964,-9.482,-0.196,4.191,-0.6499,-0.3906,0.3482,-0.002,0.014,-0.049
1670354508.8799639,-9.506,-0.225,4.22,-0.6551,-0.39280000000000004,0.36610000000000004,0.0,0.021,-0.056
1670354508.919964,-9.497,-0.227,4.23,-0.651,-0.3917,0.3321,-0.003,0.016,-0.052000000000000005
1670354508.959964,-9.497,-0.227,4.206,-0.651,-0.3917,0.3471,0.003,0.014,-0.052000000000000005
1670354508.999964,-9.51,-0.218,4.206,-0.6534,-0.3902,0.3471,0.014,0.018000000000000002,-0.051000000000000004
1670354509.039964,-9.508000000000001,-0.20500000000000002,4.235,-0.6537000000000001,-0.3921,0.369,0.012,0.018000000000000002,-0.052000000000000005
1670354509.079964,-9.494,-0.24,4.187,-0.6519,-0.3889,0.35900000000000004,0.012,0.02,-0.048
1670354509.119964,-9.484,-0.273,4.239,-0.6586000000000001,-0.3909,0.365,-0.002,0.011,-0.04
1670354509.159964,-9.531,-0.20700000000000002,4.184,-0.6518,-0.3886,0.34650000000000003,-0.001,0.02,-0.036000000000000004
1670354509.199964,-9.541,-0.14300000000000002,4.233,-0.6642,-0.39080000000000004,0.3463,0.01,0.028,-0.054
1670354509.239964,-9.494,-0.28300000000000003,4.163,-0.651,-0.3885,0.34840000000000004,0.0,0.026000000000000002,-0.053
1670354509.279964,-9.464,-0.191,4.14,-0.654,-0.3917,0.3562,-0.001,0.015,-0.041
1670354509.319963,-9.502,-0.219,4.179,-0.653,-0.3885,0.3458,0.0,0.014,-0.052000000000000005
1670354509.359963,-9.516,-0.20400000000000001,4.242,-0.6646000000000001,-0.39330000000000004,0.3553,0.005,0.011,-0.053
1670354509.399963,-9.505,-0.23900000000000002,4.189,-0.6504,-0.3894,0.3436,0.0,0.015,-0.051000000000000004
1670354509.4399629,-9.465,-0.275,4.247,-0.6523,-0.3904,0.34840000000000004,-0.004,0.014,-0.049
1670354509.479963,-9.427,-0.17400000000000002,4.192,-0.6514,-0.39030000000000004,0.3487,0.002,0.022,-0.047
1670354509.519963,-9.51,-0.268,4.221,-0.6537000000000001,-0.3874,0.34640000000000004,0.003,0.026000000000000002,-0.052000000000000005
1670354509.559963,-9.5,-0.209,4.176,-0.6522,-0.3894,0.3471,0.009000000000000001,0.026000000000000002,-0.056
1670354509.599963,-9.463000000000001,-0.219,4.2,-0.6516000000000001,-0.38780000000000003,0.3478,0.005,0.017,-0.044
1670354509.639963,-9.512,-0.21,4.21,-0.6521,-0.39,0.34590000000000004,0.006,0.012,-0.045
1670354509.6799629,-9.51,-0.18,4.184,-0.6521,-0.3881,0.3456,0.012,0.01,-0.06
1670354509.719963,-9.473,-0.23600000000000002,4.167,-0.6507000000000001,-0.3891,0.34540000000000004,0.006,0.012,-0.049
1670354509.759963,-9.495000000000001,-0.244,4.233,-0.6517000000000001,-0.38930000000000003,0.34650000000000003,0.005,0.012,-0.051000000000000004
1670354509.799963,-9.472,-0.232,4.207,-0.6518,-0.3902,0.3463,0.01,0.015,-0.053
1670354509.839963,-9.483,-0.219,4.22,-0.6501,-0.3891,0.34750000000000003,0.006,0.018000000000000002,-0.05
1670354509.879963,-9.472,-0.233,4.218,-0.6508,-0.38920000000000005,0.3476,0.007,0.02,-0.049
1670354509.919963,-9.491,-0.222,4.175,-0.6541,-0.3891,0.34600000000000003,0.003,0.018000000000000002,-0.051000000000000004
1670354509.959963,-9.489,-0.231,4.237,-0.6519,-0.3917,0.3446,0.002,0.018000000000000002,-0.049
1670354509.999963,-9.494,-0.226,4.205,-0.6517000000000001,-0.38970000000000005,0.34750000000000003,0.001,0.025,-0.051000000000000004
1670354510.039963,-9.507,-0.20800000000000002,4.255,-0.6517000000000001,-0.38880000000000003,0.3477,0.011,0.019,-0.046
1670354510.079963,-9.501,-0.227,4.225,-0.6524,-0.38780000000000003,0.3451,0.004,0.026000000000000002,-0.048
1670354510.119963,-9.487,-0.216,4.187,-0.6498,-0.38830000000000003,0.3452,0.001,0.025,-0.054
1670354510.159963,-9.475,-0.216,4.2170000000000005,-0.6498,-0.39,0.34800000000000003,-0.013000000000000001,0.023,-0.046
1670354510.199963,-9.442,-0.10400000000000001,4.199,-0.651,-0.391,0.3438,0.027,0.029,-0.045
1670354510.239963,-9.506,-0.293,4.195,-0.6484,-0.3889,0.3468,0.021,0.039,-0.058
1670354510.279963,-9.452,-0.215,4.167,-0.6494,-0.3894,0.3462,-0.007,0.025,-0.054
1670354510.319963,-9.485,-0.251,4.163,-0.6508,-0.38820000000000005,0.34740000000000004,-0.022,0.013000000000000001,-0.045
1670354510.359962,-9.534,-0.20700000000000002,4.2,-0.654,-0.3891,0.34500000000000003,-0.022,0.0,-0.051000000000000004
1670354510.399962,-9.512,-0.222,4.245,-0.6588,-0.3881,0.3477,-0.007,0.01,-0.047
1670354510.439962,-9.519,-0.23500000000000001,4.221,-0.6573,-0.3912,0.3458,-0.004,0.016,-0.053
1670354510.4799619,-9.499,-0.26,4.181,-0.6521,-0.38870000000000005,0.34500000000000003,-0.011,0.019,-0.047
1670354510.519962,-9.540000000000001,-0.213,4.242,-0.6517000000000001,-0.38830000000000003,0.34650000000000003,0.0,0.021,-0.045
1670354510.559962,-9.515,-0.19,4.2540000000000004,-0.6506000000000001,-0.3894,0.3472,0.006,0.021,-0.046
1670354510.599962,-9.483,-0.255,4.227,-0.6496000000000001,-0.3906,0.3501,0.019,0.018000000000000002,-0.051000000000000004
1670354510.639962,-9.479000000000001,-0.23600000000000002,4.237,-0.6519,-0.38770000000000004,0.3477,0.007,0.015,-0.044
1670354510.679962,-9.496,-0.2,4.223,-0.6513,-0.38980000000000004,0.34950000000000003,0.0,0.015,-0.04
1670354510.719962,-9.458,-0.224,4.25,-0.6512,-0.3902,0.3466,0.011,0.013000000000000001,-0.05
1670354510.759962,-9.487,-0.244,4.225,-0.651,-0.3915,0.3466,0.003,0.014,-0.056
1670354510.799962,-9.481,-0.219,4.246,-0.6513,-0.388,0.3477,-0.007,0.022,-0.051000000000000004
1670354510.839962,-9.484,-0.23600000000000002,4.252,-0.6507000000000001,-0.3891,0.34640000000000004,-0.007,0.029,-0.048
1670354510.879962,-9.493,-0.224,4.2620000000000005,-0.6523,-0.39080000000000004,0.3482,-0.007,0.03,-0.045
1670354510.919962,-9.484,-0.222,4.256,-0.6542,-0.38780000000000003,0.3451,-0.008,0.03,-0.043000000000000003
1670354510.959962,-9.457,-0.219,4.214,-0.6502,-0.3885,0.3487,-0.002,0.026000000000000002,-0.045
1670354510.999962,-9.493,-0.23500000000000001,4.232,-0.654,-0.3879,0.3483,0.007,0.02,-0.051000000000000004
1670354511.039962,-9.502,-0.226,4.223,-0.6494,-0.3896,0.3462,0.006,0.021,-0.047
1670354511.079962,-9.475,-0.221,4.224,-0.6516000000000001,-0.39,0.3396,0.012,0.017,-0.053
1670354511.119962,-9.459,-0.261,4.197,-0.6502,-0.38830000000000003,0.3382,0.001,0.019,-0.05
1670354511.159962,-9.525,-0.228,4.236,-0.6562,-0.3916,0.3491,0.0,0.013000000000000001,-0.037
1670354511.199962,-9.525,-0.228,4.221,-0.6562,-0.3916,0.3491,0.008,0.014,-0.038
1670354511.239962,-9.555,-0.186,4.221,-0.6533,-0.3886,0.35100000000000003,0.003,0.021,-0.051000000000000004
1670354511.279962,-9.432,-0.228,4.2,-0.663,-0.3922,0.3698,-0.001,0.016,-0.05
1670354511.319962,-9.446,-0.223,4.165,-0.6481,-0.3894,0.34290000000000004,0.0,0.011,-0.046
1670354511.359962,-9.5,-0.213,4.239,-0.6607000000000001,-0.3895,0.3225,0.011,0.009000000000000001,-0.058
1670354511.399961,-9.485,-0.218,4.299,-0.6531,-0.387,0.3493,0.01,0.013000000000000001,-0.056
1670354511.439961,-9.495000000000001,-0.272,4.242,-0.6549,-0.388,0.3538,-0.007,0.02,-0.056
1670354511.479961,-9.476,-0.271,4.284,-0.6523,-0.3894,0.3543,-0.003,0.024,-0.039
1670354511.5199609,-9.51,-0.156,4.234,-0.6517000000000001,-0.38970000000000005,0.3482,0.017,0.035,-0.046
1670354511.559961,-9.527000000000001,-0.226,4.244,-0.6534,-0.3896,0.3533,0.015,0.033,-0.054
1670354511.599961,-9.461,-0.23600000000000002,4.1850000000000005,-0.6518,-0.39030000000000004,0.3466,0.003,0.026000000000000002,-0.039
1670354511.639961,-9.434000000000001,-0.201,4.194,-0.65,-0.3891,0.3466,-0.004,0.019,-0.038
1670354511.679961,-9.487,-0.176,4.182,-0.6526000000000001,-0.3902,0.3496,0.01,0.014,-0.054
1670354511.719961,-9.491,-0.20700000000000002,4.265,-0.6498,-0.3881,0.3451,0.008,0.016,-0.057
1670354511.759961,-9.498,-0.242,4.203,-0.6523,-0.39,0.3477,-0.007,0.018000000000000002,-0.046
1670354511.799961,-9.488,-0.225,4.244,-0.6516000000000001,-0.3899,0.34790000000000004,-0.004,0.02,-0.042
1670354511.839961,-9.493,-0.199,4.2170000000000005,-0.6543,-0.3906,0.3496,0.0,0.021,-0.045
1670354511.799961,-9.481,-0.234,4.227,-0.6522,-0.38970000000000005,0.3483,0.002,0.023,-0.049
1670354511.839961,-9.477,-0.219,4.253,-0.6505000000000001,-0.3886,0.3477,0.0,0.017,-0.049
1670354511.879961,-9.488,-0.224,4.197,-0.6519,-0.3881,0.34690000000000004,0.003,0.015,-0.043000000000000003
1670354511.919961,-9.469,-0.187,4.251,-0.6529,-0.3905,0.34790000000000004,0.012,0.017,-0.052000000000000005
1670354511.959961,-9.494,-0.223,4.249,-0.6512,-0.392,0.3487,0.014,0.018000000000000002,-0.051000000000000004
1670354511.999961,-9.448,-0.246,4.213,-0.6524,-0.3902,0.3458,0.0,0.014,-0.042
1670354512.039961,-9.513,-0.225,4.259,-0.6515000000000001,-0.38920000000000005,0.34690000000000004,0.0,0.027,-0.034
1670354512.079961,-9.543000000000001,-0.14300000000000002,4.244,-0.6491,-0.3876,0.3488,0.007,0.032,-0.052000000000000005
1670354512.119961,-9.424,-0.20800000000000002,4.2,-0.6505000000000001,-0.3889,0.3462,0.006,0.024,-0.049
1670354512.159961,-9.46,-0.221,4.202,-0.6542,-0.3896,0.3487,-0.002,0.017,-0.047
1670354512.199961,-9.479000000000001,-0.20800000000000002,4.215,-0.6522,-0.3889,0.34690000000000004,-0.005,0.017,-0.051000000000000004
1670354512.239961,-9.505,-0.20400000000000001,4.289,-0.6519,-0.3909,0.3466,0.0,0.016,-0.054
1670354512.279961,-9.489,-0.223,4.205,-0.6532,-0.3886,0.34740000000000004,-0.004,0.025,-0.055
1670354512.319961,-9.507,-0.28600000000000003,4.211,-0.6526000000000001,-0.39130000000000004,0.34800000000000003,-0.006,0.024,-0.051000000000000004
1670354512.359961,-9.524000000000001,-0.156,4.272,-0.6542,-0.3889,0.34800000000000003,0.003,0.03,-0.044
1670354512.399961,-9.505,-0.217,4.24,-0.6512,-0.38970000000000005,0.3486,0.009000000000000001,0.024,-0.05
1670354512.43996,-9.467,-0.212,4.173,-0.6513,-0.39,0.34750000000000003,0.011,0.026000000000000002,-0.046
1670354512.47996,-9.47,-0.226,4.232,-0.6538,-0.39130000000000004,0.34690000000000004,0.006,0.019,-0.041
1670354512.51996,-9.484,-0.165,4.205,-0.6509,-0.3906,0.3463,0.006,0.012,-0.053
1670354512.55996,-9.495000000000001,-0.21,4.272,-0.6514,-0.3899,0.3441,0.015,0.01,-0.058
1670354512.59996,-9.494,-0.252,4.22,-0.6554,-0.38930000000000003,0.35250000000000004,-0.003,0.018000000000000002,-0.054
1670354512.63996,-9.484,-0.211,4.218,-0.653,-0.3905,0.34840000000000004,-0.007,0.018000000000000002,-0.043000000000000003
1670354512.67996,-9.479000000000001,-0.189,4.248,-0.6516000000000001,-0.3891,0.34790000000000004,0.001,0.018000000000000002,-0.043000000000000003
1670354512.71996,-9.482,-0.225,4.267,-0.6538,-0.3904,0.3463,0.004,0.023,-0.055
1670354512.75996,-9.488,-0.23800000000000002,4.207,-0.6534,-0.39080000000000004,0.34600000000000003,0.003,0.018000000000000002,-0.045
1670354512.79996,-9.455,-0.216,4.214,-0.6546000000000001,-0.39130000000000004,0.3476,0.0,0.021,-0.05
1670354512.83996,-9.485,-0.21,4.2,-0.6528,-0.3891,0.34640000000000004,0.005,0.018000000000000002,-0.049
1670354512.87996,-9.481,-0.196,4.216,-0.6511,-0.388,0.3502,0.014,0.023,-0.046
1670354512.91996,-9.499,-0.214,4.231,-0.6516000000000001,-0.38830000000000003,0.3483,0.011,0.024,-0.061
1670354512.95996,-9.435,-0.23700000000000002,4.208,-0.6533,-0.38880000000000003,0.34800000000000003,-0.004,0.025,-0.051000000000000004
1670354512.99996,-9.506,-0.219,4.222,-0.6519,-0.38870000000000005,0.3456,-0.004,0.025,-0.038
1670354513.03996,-9.527000000000001,-0.16,4.251,-0.6505000000000001,-0.38930000000000003,0.3467,0.005,0.02,-0.047
1670354513.07996,-9.468,-0.202,4.189,-0.6524,-0.39080000000000004,0.34840000000000004,0.009000000000000001,0.021,-0.058
1670354513.11996,-9.442,-0.253,4.18,-0.6519,-0.3911,0.3447,0.0,0.021,-0.046
1670354513.15996,-9.481,-0.20400000000000001,4.223,-0.6529,-0.3889,0.3477,-0.007,0.013000000000000001,-0.043000000000000003
1670354513.19996,-9.493,-0.186,4.251,-0.653,-0.3895,0.3498,0.007,0.007,-0.053
1670354513.23996,-9.5,-0.23600000000000002,4.211,-0.6551,-0.3919,0.33440000000000003,0.011,0.017,-0.056
1670354513.27996,-9.463000000000001,-0.28600000000000003,4.23,-0.6516000000000001,-0.3884,0.34890000000000004,-0.004,0.021,-0.054
1670354513.31996,-9.463000000000001,-0.148,4.259,-0.6516000000000001,-0.3927,0.3781,-0.003,0.011,-0.035
1670354513.35996,-9.49,-0.148,4.259,-0.6613,-0.3927,0.3781,0.002,0.028,-0.048
1670354513.39996,-9.52,-0.20800000000000002,4.247,-0.6583,-0.3884,0.33580000000000004,0.007,0.035,-0.05
1670354513.43996,-9.475,-0.228,4.23,-0.6498,-0.3894,0.3578,0.004,0.023,-0.042
1670354513.479959,-9.451,-0.199,4.162,-0.6535000000000001,-0.38920000000000005,0.3599,0.003,0.017,-0.043000000000000003
1670354513.519959,-9.49,-0.17500000000000002,4.258,-0.6559,-0.39030000000000004,0.3482,0.006,0.016,-0.055
1670354513.559959,-9.489,-0.198,4.226,-0.6539,-0.3905,0.3468,0.007,0.018000000000000002,-0.059000000000000004
1670354513.599959,-9.478,-0.243,4.205,-0.653,-0.3914,0.34900000000000003,-0.013000000000000001,0.018000000000000002,-0.052000000000000005
1670354513.639959,-9.463000000000001,-0.224,4.215,-0.6535000000000001,-0.391,0.3456,-0.01,0.027,-0.047
1670354513.679959,-9.485,-0.192,4.219,-0.6517000000000001,-0.38970000000000005,0.3451,0.0,0.025,-0.051000000000000004
1670354513.719959,-9.487,-0.222,4.253,-0.6508,-0.3915,0.3457,0.0,0.026000000000000002,-0.053
1670354513.759959,-9.496,-0.259,4.271,-0.6519,-0.3905,0.3466,0.001,0.025,-0.052000000000000005
1670354513.799959,-9.483,-0.252,4.239,-0.6537000000000001,-0.3894,0.34440000000000004,0.002,0.023,-0.044
1670354513.839959,-9.484,-0.216,4.224,-0.6534,-0.3894,0.3488,0.002,0.019,-0.049
1670354513.879959,-9.492,-0.226,4.229,-0.653,-0.3889,0.34700000000000003,0.007,0.029,-0.045
1670354513.919959,-9.516,-0.193,4.219,-0.651,-0.38880000000000003,0.34940000000000004,-0.007,0.053,-0.035
1670354513.959959,-9.478,-0.26,4.212,-0.6531,-0.3876,0.34650000000000003,-0.018000000000000002,0.042,-0.031
1670354513.999959,-9.488,-0.17400000000000002,4.178,-0.6515000000000001,-0.39030000000000004,0.34750000000000003,-0.003,0.038,-0.045
1670354514.039959,-9.477,-0.17400000000000002,4.173,-0.65,-0.3902,0.3462,0.009000000000000001,0.014,-0.046
1670354514.079959,-9.411,-0.234,4.198,-0.6524,-0.3909,0.3503,-0.002,0.006,-0.048
1670354514.119959,-9.479000000000001,-0.167,4.175,-0.6497,-0.3896,0.3468,0.014,0.005,-0.038
1670354514.159959,-9.521,-0.247,4.227,-0.6525000000000001,-0.39080000000000004,0.34550000000000003,0.019,0.005,-0.062
1670354514.199959,-9.424,-0.189,4.206,-0.6507000000000001,-0.3905,0.3447,0.013000000000000001,-0.004,-0.062
1670354514.239959,-9.503,-0.186,4.18,-0.6549,-0.38970000000000005,0.3488,0.01,-0.004,-0.062
1670354514.279959,-9.497,-0.221,4.257,-0.6519,-0.3914,0.34690000000000004,0.003,-0.002,-0.061
1670354514.319959,-9.5,-0.22,4.269,-0.6505000000000001,-0.3906,0.3498,0.002,0.0,-0.06
1670354514.359959,-9.479000000000001,-0.234,4.224,-0.6537000000000001,-0.3916,0.3533,-0.007,0.014,-0.062
1670354514.3999588,-9.453,-0.259,4.276,-0.6565000000000001,-0.3921,0.3512,-0.015,0.011,-0.046
1670354514.439959,-9.552,-0.203,4.314,-0.6518,-0.39,0.3482,-0.001,0.021,-0.052000000000000005
1670354514.479959,-9.458,-0.214,4.238,-0.651,-0.3895,0.35050000000000003,0.008,0.03,-0.054
1670354514.519958,-9.417,-0.246,4.285,-0.6512,-0.38870000000000005,0.3453,0.005,0.019,-0.041
1670354514.559958,-9.463000000000001,-0.234,4.272,-0.6502,-0.3911,0.34650000000000003,0.0,0.022,-0.042
1670354514.599958,-9.473,-0.194,4.295,-0.6515000000000001,-0.38780000000000003,0.34750000000000003,0.006,0.017,-0.055
1670354514.639958,-9.461,-0.23700000000000002,4.227,-0.6509,-0.3881,0.3487,0.008,0.019,-0.058
1670354514.679958,-9.441,-0.257,4.281,-0.6505000000000001,-0.3875,0.3491,-0.007,0.026000000000000002,-0.048
1670354514.719958,-9.478,-0.214,4.213,-0.6521,-0.38670000000000004,0.34850000000000003,-0.005,0.034,-0.049
1670354514.759958,-9.459,-0.227,4.219,-0.6538,-0.3899,0.3463,0.0,0.032,-0.045
1670354514.799958,-9.454,-0.22,4.252,-0.6529,-0.39030000000000004,0.3462,0.001,0.03,-0.05
1670354514.839958,-9.461,-0.247,4.22,-0.6524,-0.3894,0.34690000000000004,-0.001,0.023,-0.048
1670354514.879958,-9.455,-0.23500000000000001,4.226,-0.6541,-0.38880000000000003,0.3476,-0.002,0.02,-0.045
1670354514.919958,-9.499,-0.232,4.225,-0.6515000000000001,-0.388,0.34790000000000004,0.005,0.018000000000000002,-0.049
1670354514.959958,-9.452,-0.222,4.253,-0.6523,-0.388,0.34840000000000004,0.008,0.021,-0.045
1670354514.999958,-9.485,-0.253,4.225,-0.6508,-0.3894,0.3504,0.01,0.021,-0.049
1670354515.039958,-9.450000000000001,-0.217,4.246,-0.6494,-0.387,0.3481,0.0,0.015,-0.047
1670354515.079958,-9.494,-0.211,4.221,-0.6501,-0.3907,0.3487,0.0,0.019,-0.034
1670354515.119958,-9.478,-0.278,4.203,-0.6518,-0.3899,0.3483,0.004,0.029,-0.052000000000000005
1670354515.159958,-9.411,-0.181,4.216,-0.6536000000000001,-0.3884,0.3467,0.001,0.012,-0.048
1670354515.1999578,-9.488,-0.23800000000000002,4.211,-0.6514,-0.38820000000000005,0.34940000000000004,0.001,0.008,-0.047
1670354515.239958,-9.497,-0.243,4.239,-0.6532,-0.38980000000000004,0.3472,0.005,0.009000000000000001,-0.05
1670354515.279958,-9.492,-0.229,4.247,-0.6529,-0.3881,0.3493,0.012,0.007,-0.055
1670354515.319958,-9.446,-0.268,4.24,-0.6526000000000001,-0.39,0.34740000000000004,0.004,0.015,-0.051000000000000004
1670354515.359958,-9.379,-0.181,4.2780000000000005,-0.6549,-0.3911,0.3513,-0.002,0.021,-0.04
1670354515.399958,-9.484,-0.28600000000000003,4.238,-0.652,-0.3895,0.3501,0.008,0.02,-0.046
1670354515.4399579,-9.47,-0.202,4.29,-0.653,-0.3874,0.3491,0.015,0.023,-0.055
1670354515.479958,-9.439,-0.23600000000000002,4.245,-0.6533,-0.38770000000000004,0.3628,0.008,0.018000000000000002,-0.047
1670354515.519958,-9.439,-0.218,4.273,-0.6533,-0.3884,0.3498,0.001,0.011,-0.041
1670354515.559958,-9.433,-0.218,4.25,-0.6527000000000001,-0.3884,0.3498,0.008,0.011,-0.052000000000000005
1670354515.599958,-9.49,-0.197,4.25,-0.6558,-0.3866,0.3557,0.006,0.008,-0.059000000000000004
1670354515.639957,-9.463000000000001,-0.266,4.317,-0.6546000000000001,-0.3891,0.34650000000000003,-0.002,0.019,-0.057
1670354515.679957,-9.458,-0.23700000000000002,4.225,-0.6535000000000001,-0.3885,0.3452,-0.009000000000000001,0.024,-0.046
1670354515.719957,-9.446,-0.246,4.33,-0.6539,-0.38980000000000004,0.3388,-0.003,0.028,-0.049
1670354515.759957,-9.465,-0.232,4.282,-0.6525000000000001,-0.3895,0.35050000000000003,0.004,0.027,-0.057
1670354515.799957,-9.489,-0.229,4.292,-0.6535000000000001,-0.388,0.34990000000000004,0.004,0.023,-0.052000000000000005
1670354515.839957,-9.461,-0.258,4.2780000000000005,-0.6512,-0.3869,0.3483,0.0,0.022,-0.051000000000000004
1670354515.879957,-9.446,-0.226,4.258,-0.6514,-0.3906,0.35050000000000003,0.002,0.017,-0.048
1670354515.919957,-9.463000000000001,-0.23700000000000002,4.222,-0.6554,-0.38830000000000003,0.3496,0.014,0.022,-0.049
1670354515.959957,-9.471,-0.228,4.242,-0.6523,-0.3894,0.3514,0.005,0.021,-0.053
1670354515.9999568,-9.41,-0.248,4.231,-0.6551,-0.3885,0.34900000000000003,-0.014,0.022,-0.051000000000000004
1670354516.039957,-9.449,-0.233,4.2940000000000005,-0.6518,-0.38720000000000004,0.3488,-0.008,0.014,-0.04
1670354516.079957,-9.536,-0.20800000000000002,4.272,-0.6529,-0.3895,0.35100000000000003,0.003,0.024,-0.061
1670354516.119957,-9.451,-0.243,4.255,-0.6504,-0.38830000000000003,0.34800000000000003,0.002,0.025,-0.057
1670354516.159957,-9.436,-0.289,4.205,-0.6647000000000001,-0.3947,0.3579,-0.009000000000000001,0.016,-0.045
1670354516.199957,-9.464,-0.233,4.264,-0.6516000000000001,-0.3885,0.3498,0.0,0.011,-0.047
1670354516.2399569,-9.51,-0.228,4.28,-0.6535000000000001,-0.3889,0.3446,0.01,0.014,-0.049
1670354516.279957,-9.466000000000001,-0.281,4.276,-0.6511,-0.3905,0.34790000000000004,0.009000000000000001,0.021,-0.06
1670354516.319957,-9.463000000000001,-0.312,4.2170000000000005,-0.6528,-0.3894,0.3457,-0.006,0.018000000000000002,-0.039
1670354516.359957,-9.51,-0.199,4.257,-0.6568,-0.38720000000000004,0.34740000000000004,-0.002,0.031,-0.044
1670354516.399957,-9.482,-0.24,4.282,-0.6505000000000001,-0.3886,0.34740000000000004,0.004,0.032,-0.052000000000000005
1670354516.439957,-9.485,-0.269,4.229,-0.654,-0.3884,0.34740000000000004,0.005,0.024,-0.043000000000000003
1670354516.4799569,-9.442,-0.22,4.216,-0.65,-0.38780000000000003,0.3467,-0.001,0.013000000000000001,-0.038
1670354516.519957,-9.458,-0.20500000000000002,4.1930000000000005,-0.6548,-0.38970000000000005,0.3486,0.015,0.014,-0.049
1670354516.559957,-9.453,-0.246,4.26,-0.6508,-0.38880000000000003,0.34600000000000003,0.01,0.013000000000000001,-0.053
1670354516.599957,-9.476,-0.279,4.23,-0.6538,-0.3884,0.34950000000000003,-0.007,0.01,-0.051000000000000004
1670354516.639957,-9.469,-0.23900000000000002,4.257,-0.6541,-0.3891,0.3466,-0.008,0.021,-0.039
1670354516.679956,-9.471,-0.249,4.238,-0.6523,-0.38720000000000004,0.3491,0.001,0.022,-0.047
1670354516.719956,-9.463000000000001,-0.258,4.275,-0.6543,-0.388,0.3463,0.002,0.025,-0.041
1670354516.759956,-9.453,-0.272,4.22,-0.6508,-0.38780000000000003,0.3483,-0.004,0.023,-0.045
1670354516.7999558,-9.468,-0.245,4.275,-0.6544,-0.38830000000000003,0.3458,0.003,0.016,-0.042
1670354516.839956,-9.479000000000001,-0.252,4.261,-0.6505000000000001,-0.38820000000000005,0.34800000000000003,0.009000000000000001,0.014,-0.049
1670354516.879956,-9.488,-0.229,4.296,-0.6504,-0.3891,0.34800000000000003,0.01,0.012,-0.039
1670354516.919956,-9.464,-0.228,4.233,-0.6523,-0.389,0.34800000000000003,0.014,0.017,-0.053
1670354516.959956,-9.431000000000001,-0.269,4.248,-0.6518,-0.3899,0.3477,0.003,0.019,-0.05
1670354516.999956,-9.515,-0.263,4.285,-0.6526000000000001,-0.39030000000000004,0.3478,-0.008,0.02,-0.037
1670354517.0399559,-9.53,-0.202,4.284,-0.6529,-0.3901,0.3482,0.001,0.027,-0.052000000000000005
1670354517.079956,-9.406,-0.23,4.235,-0.6534,-0.388,0.34790000000000004,0.0,0.018000000000000002,-0.056
1670354517.119956,-9.423,-0.252,4.199,-0.6533,-0.3889,0.34790000000000004,-0.005,0.013000000000000001,-0.049
1670354517.159956,-9.469,-0.234,4.249,-0.6519,-0.39,0.34940000000000004,-0.008,0.007,-0.053
1670354517.199956,-9.479000000000001,-0.232,4.276,-0.654,-0.38670000000000004,0.34850000000000003,0.0,0.006,-0.063
1670354517.239956,-9.487,-0.293,4.273,-0.6542,-0.3886,0.34900000000000003,0.002,0.013000000000000001,-0.052000000000000005
1670354517.2799559,-9.439,-0.306,4.208,-0.6546000000000001,-0.38920000000000005,0.3493,-0.006,0.017,-0.051000000000000004
1670354517.319956,-9.476,-0.165,4.297,-0.651,-0.38830000000000003,0.34800000000000003,-0.004,0.019,-0.039
1670354517.359956,-9.493,-0.243,4.245,-0.6537000000000001,-0.38730000000000003,0.3527,0.015,0.024,-0.044
