timestamp,acc_x,acc_y,acc_z,magn_x,magn_y,magn_z,gyro_x,gyro_y,gyro_z
1670355404.08,-9.34,-0.234,4.543,-0.6428,-0.3773,0.3769,0.005,0.026000000000000002,-0.045
1670355404.12,-9.329,-0.219,4.577,-0.6426000000000001,-0.378,0.3758,0.0,0.028,-0.048
1670355404.16,-9.363,-0.20800000000000002,4.5520000000000005,-0.644,-0.3775,0.374,0.011,0.024,-0.043000000000000003
1670355404.2,-9.345,-0.229,4.532,-0.6432,-0.37670000000000003,0.3753,0.012,0.026000000000000002,-0.052000000000000005
1670355404.24,-9.369,-0.274,4.579,-0.6415000000000001,-0.3801,0.3744,0.006,0.022,-0.055
1670355404.28,-9.363,-0.253,4.542,-0.6423,-0.3794,0.3753,-0.004,0.018000000000000002,-0.045
1670355404.32,-9.407,-0.149,4.554,-0.6419,-0.3769,0.37260000000000004,-0.003,0.022,-0.039
1670355404.36,-9.329,-0.24,4.507,-0.6432,-0.3776,0.3724,0.005,0.03,-0.056
1670355404.4,-9.315,-0.222,4.506,-0.6405000000000001,-0.3784,0.37320000000000003,0.004,0.025,-0.065
1670355404.44,-9.355,-0.226,4.5200000000000005,-0.6416000000000001,-0.3803,0.3734,0.0,0.017,-0.052000000000000005
1670355404.48,-9.387,-0.223,4.561,-0.6432,-0.3781,0.37360000000000004,-0.007,0.02,-0.045
1670355404.52,-9.363,-0.22,4.571,-0.642,-0.3794,0.37420000000000003,0.001,0.02,-0.049
1670355404.559999,-9.39,-0.277,4.529,-0.6441,-0.3808,0.3759,0.001,0.017,-0.057
1670355404.599999,-9.354000000000001,-0.162,4.555,-0.6418,-0.37720000000000004,0.37420000000000003,0.003,0.01,-0.043000000000000003
1670355404.639999,-9.394,-0.244,4.5200000000000005,-0.6414000000000001,-0.37970000000000004,0.37260000000000004,0.016,0.032,-0.049
1670355404.6799989,-9.375,-0.222,4.477,-0.6437,-0.37920000000000004,0.37220000000000003,0.015,0.038,-0.053
1670355404.719999,-9.355,-0.243,4.474,-0.6429,-0.3781,0.378,0.011,0.034,-0.033
1670355404.759999,-9.352,-0.183,4.511,-0.6417,-0.3781,0.374,0.003,0.028,-0.034
1670355404.799999,-9.352,-0.186,4.518,-0.6417,-0.3806,0.3759,0.014,0.019,-0.051000000000000004
1670355404.839999,-9.404,-0.186,4.484,-0.6409,-0.3806,0.3759,0.016,0.019,-0.059000000000000004
1670355404.879999,-9.374,-0.229,4.484,-0.6411,-0.3798,0.3778,0.004,0.018000000000000002,-0.046
1670355404.919999,-9.369,-0.22,4.463,-0.6523,-0.3794,0.37110000000000004,-0.006,0.015,-0.043000000000000003
1670355404.959999,-9.405,-0.223,4.483,-0.6454000000000001,-0.3791,0.3733,0.001,0.02,-0.048
1670355404.999999,-9.385,-0.219,4.537,-0.6414000000000001,-0.37920000000000004,0.3728,0.001,0.026000000000000002,-0.054
1670355405.039999,-9.381,-0.219,4.509,-0.6436000000000001,-0.3801,0.3764,0.006,0.026000000000000002,-0.046
1670355405.079999,-9.346,-0.20700000000000002,4.496,-0.6399,-0.3798,0.3764,0.006,0.021,-0.043000000000000003
1670355405.119999,-9.370000000000001,-0.21,4.515,-0.6432,-0.3794,0.3748,0.009000000000000001,0.019,-0.048
1670355405.159999,-9.379,-0.198,4.457,-0.6421,-0.3806,0.3748,0.014,0.023,-0.051000000000000004
1670355405.199999,-9.389,-0.216,4.5040000000000004,-0.6435000000000001,-0.38070000000000004,0.3733,0.012,0.019,-0.05
1670355405.239999,-9.405,-0.257,4.506,-0.6416000000000001,-0.38270000000000004,0.37320000000000003,0.001,0.017,-0.041
1670355405.279999,-9.408,-0.197,4.518,-0.641,-0.37920000000000004,0.372,0.001,0.017,-0.033
1670355405.319999,-9.461,-0.089,4.518,-0.6539,-0.38220000000000004,0.37520000000000003,0.013000000000000001,0.03,-0.054
1670355405.359999,-9.366,-0.189,4.452,-0.6384000000000001,-0.3775,0.3714,0.014,0.024,-0.05
1670355405.399999,-9.354000000000001,-0.22,4.463,-0.6407,-0.3825,0.3718,0.007,0.02,-0.039
1670355405.439999,-9.376,-0.195,4.478,-0.6405000000000001,-0.38,0.37120000000000003,0.0,0.009000000000000001,-0.05
1670355405.479999,-9.375,-0.181,4.534,-0.6405000000000001,-0.382,0.3725,0.0,0.009000000000000001,-0.051000000000000004
1670355405.519999,-9.396,-0.192,4.474,-0.6414000000000001,-0.379,0.3733,0.008,0.01,-0.062
1670355405.559999,-9.411,-0.254,4.487,-0.6407,-0.3776,0.3719,-0.001,0.008,-0.044
1670355405.599998,-9.403,-0.099,4.517,-0.6408,-0.377,0.37360000000000004,0.008,0.023,-0.047
1670355405.639998,-9.426,-0.186,4.502,-0.6411,-0.3791,0.37120000000000003,0.013000000000000001,0.032,-0.052000000000000005
1670355405.679998,-9.381,-0.178,4.452,-0.6455000000000001,-0.3808,0.3734,0.011,0.034,-0.04
1670355405.719998,-9.355,-0.20400000000000001,4.455,-0.6407,-0.3788,0.3728,0.0,0.024,-0.04
1670355405.759998,-9.370000000000001,-0.123,4.442,-0.6397,-0.3826,0.3728,0.005,0.016,-0.052000000000000005
1670355405.799998,-9.382,-0.156,4.479,-0.6403,-0.37870000000000004,0.372,0.016,0.017,-0.065
1670355405.839998,-9.376,-0.198,4.485,-0.6384000000000001,-0.38280000000000003,0.3715,0.008,0.015,-0.06
1670355405.879998,-9.378,-0.21,4.476,-0.6396000000000001,-0.3811,0.3743,-0.013000000000000001,0.014,-0.048
1670355405.919998,-9.408,-0.177,4.466,-0.643,-0.3775,0.3734,-0.003,0.017,-0.047
1670355405.959998,-9.385,-0.171,4.501,-0.6384000000000001,-0.3819,0.37110000000000004,0.007,0.018000000000000002,-0.053
1670355405.999998,-9.382,-0.216,4.503,-0.6397,-0.37870000000000004,0.3723,0.006,0.024,-0.053
1670355406.039998,-9.371,-0.186,4.518,-0.6423,-0.3794,0.3718,0.003,0.018000000000000002,-0.044
1670355406.079998,-9.373,-0.184,4.472,-0.6422,-0.38020000000000004,0.375,0.006,0.02,-0.049
1670355406.119998,-9.409,-0.171,4.511,-0.6413,-0.3798,0.37220000000000003,0.018000000000000002,0.018000000000000002,-0.056
1670355406.159998,-9.386000000000001,-0.196,4.487,-0.6393,-0.3798,0.3743,0.02,0.022,-0.051000000000000004
1670355406.199998,-9.361,-0.219,4.445,-0.6411,-0.3804,0.3734,-0.002,0.018000000000000002,-0.043000000000000003
1670355406.239998,-9.417,-0.212,4.496,-0.6397,-0.3781,0.37360000000000004,-0.01,0.027,-0.041
1670355406.279998,-9.447000000000001,-0.093,4.526,-0.6399,-0.3793,0.3703,0.008,0.027,-0.055
1670355406.319998,-9.355,-0.189,4.414,-0.6427,-0.3806,0.37410000000000004,0.012,0.023,-0.061
1670355406.359998,-9.346,-0.228,4.46,-0.6399,-0.3786,0.37,-0.005,0.016,-0.041
1670355406.399998,-9.393,-0.155,4.457,-0.6404000000000001,-0.3781,0.37470000000000003,-0.009000000000000001,0.014,-0.042
1670355406.439998,-9.397,-0.162,4.526,-0.6413,-0.37920000000000004,0.37320000000000003,-0.002,0.012,-0.053
1670355406.479998,-9.394,-0.2,4.509,-0.6423,-0.3814,0.3729,0.008,0.011,-0.059000000000000004
1670355406.519998,-9.418000000000001,-0.249,4.457,-0.6402,-0.37970000000000004,0.3723,0.0,0.014,-0.06
1670355406.559998,-9.412,-0.11900000000000001,4.521,-0.6441,-0.3805,0.37110000000000004,0.005,0.012,-0.041
1670355406.599998,-9.43,-0.187,4.484,-0.6433,-0.3778,0.37410000000000004,0.014,0.033,-0.044
1670355406.639997,-9.399000000000001,-0.194,4.4430000000000005,-0.6428,-0.3801,0.37210000000000004,0.028,0.046,-0.062
1670355406.679997,-9.359,-0.187,4.461,-0.6402,-0.3795,0.37260000000000004,0.002,0.016,-0.04
1670355406.719997,-9.403,-0.195,4.5120000000000005,-0.6394000000000001,-0.3783,0.3715,-0.016,0.005,-0.03
1670355406.759997,-9.402000000000001,-0.117,4.533,-0.641,-0.3799,0.3734,0.005,0.004,-0.059000000000000004
1670355406.799997,-9.415000000000001,-0.20700000000000002,4.4750000000000005,-0.6421,-0.38120000000000004,0.37370000000000003,0.016,-0.001,-0.074
1670355406.839997,-9.394,-0.233,4.482,-0.6423,-0.3783,0.3718,0.0,0.001,-0.057
1670355406.879997,-9.403,-0.215,4.5200000000000005,-0.6402,-0.3809,0.3748,-0.025,0.006,-0.043000000000000003
1670355406.919997,-9.39,-0.183,4.521,-0.6414000000000001,-0.3778,0.37370000000000003,-0.006,0.017,-0.048
1670355406.959997,-9.369,-0.20500000000000002,4.501,-0.6433,-0.3809,0.38270000000000004,0.0,0.016,-0.051000000000000004
1670355406.999997,-9.381,-0.209,4.514,-0.6417,-0.3801,0.35650000000000004,0.005,0.009000000000000001,-0.041
1670355407.039997,-9.381,-0.178,4.519,-0.6417,-0.3801,0.37920000000000004,0.003,0.007,-0.04
1670355407.079997,-9.376,-0.178,4.519,-0.6409,-0.3801,0.37920000000000004,0.019,0.003,-0.034
1670355407.119997,-9.366,-0.17500000000000002,4.503,-0.6422,-0.3795,0.405,0.025,0.006,-0.038
1670355407.159997,-9.394,-0.168,4.48,-0.6474000000000001,-0.38220000000000004,0.3693,0.022,0.005,-0.036000000000000004
1670355407.199997,-9.377,-0.18,4.483,-0.6413,-0.37670000000000003,0.36610000000000004,0.02,0.0,-0.047
1670355407.239997,-9.356,-0.192,4.525,-0.6506000000000001,-0.3811,0.39330000000000004,0.007,-0.01,-0.05
1670355407.279997,-9.4,-0.177,4.538,-0.6411,-0.3808,0.37260000000000004,0.016,-0.012,-0.036000000000000004
1670355407.319997,-9.421,-0.077,4.555,-0.6429,-0.38270000000000004,0.38280000000000003,0.017,-0.001,-0.057
1670355407.359997,-9.312,-0.185,4.5360000000000005,-0.6419,-0.3824,0.3734,0.02,-0.003,-0.054
1670355407.399997,-9.299,-0.169,4.517,-0.6542,-0.386,0.3829,0.009000000000000001,-0.002,-0.045
1670355407.439997,-9.361,-0.126,4.569,-0.6421,-0.383,0.3765,0.005,0.001,-0.052000000000000005
1670355407.479997,-9.348,-0.14300000000000002,4.6000000000000005,-0.6441,-0.3814,0.3764,0.005,0.003,-0.056
1670355407.519997,-9.349,-0.158,4.599,-0.6425000000000001,-0.3814,0.378,0.004,0.003,-0.063
1670355407.5599968,-9.364,-0.199,4.575,-0.6435000000000001,-0.38,0.3763,-0.003,-0.006,-0.053
1670355407.599997,-9.345,-0.085,4.582,-0.6437,-0.3814,0.377,0.003,0.008,-0.053
1670355407.639997,-9.344,-0.154,4.6000000000000005,-0.6452,-0.37870000000000004,0.37920000000000004,0.009000000000000001,0.009000000000000001,-0.058
1670355407.679996,-9.323,-0.171,4.547,-0.6414000000000001,-0.38230000000000003,0.37820000000000004,0.001,0.006,-0.043000000000000003
1670355407.719996,-9.297,-0.156,4.609,-0.6429,-0.3781,0.3759,0.0,0.01,-0.052000000000000005
1670355407.759996,-9.303,-0.124,4.622,-0.6422,-0.37920000000000004,0.3753,0.004,0.007,-0.062
1670355407.799996,-9.318,-0.147,4.632,-0.6431,-0.3808,0.3776,0.016,0.005,-0.066
1670355407.839996,-9.333,-0.195,4.652,-0.6432,-0.3803,0.3783,0.005,0.017,-0.061
1670355407.879996,-9.318,-0.166,4.615,-0.6431,-0.38230000000000003,0.377,-0.001,0.023,-0.054
1670355407.919996,-9.314,-0.181,4.598,-0.6424000000000001,-0.37870000000000004,0.3769,-0.003,0.029,-0.052000000000000005
1670355407.959996,-9.312,-0.159,4.596,-0.6429,-0.3788,0.3744,0.003,0.032,-0.056
1670355407.999996,-9.32,-0.168,4.609,-0.6445000000000001,-0.3799,0.3776,0.003,0.026000000000000002,-0.058
1670355408.039996,-9.294,-0.162,4.59,-0.6417,-0.379,0.3783,0.003,0.023,-0.055
1670355408.079996,-9.33,-0.153,4.598,-0.6444000000000001,-0.381,0.3798,0.008,0.019,-0.055
1670355408.119996,-9.299,-0.171,4.62,-0.6419,-0.3809,0.378,0.003,0.012,-0.057
1670355408.159996,-9.355,-0.202,4.642,-0.6438,-0.3783,0.3789,0.005,0.01,-0.041
1670355408.199996,-9.382,-0.16,4.6080000000000005,-0.6457,-0.3809,0.38,0.009000000000000001,0.028,-0.049
1670355408.239996,-9.295,-0.134,4.5760000000000005,-0.6421,-0.3819,0.377,0.007,0.027,-0.05
1670355408.279996,-9.308,-0.183,4.594,-0.6405000000000001,-0.3816,0.3783,0.007,0.023,-0.045
1670355408.319996,-9.315,-0.178,4.616,-0.6415000000000001,-0.37970000000000004,0.3794,0.006,0.016,-0.05
1670355408.359996,-9.348,-0.152,4.605,-0.6414000000000001,-0.3801,0.3783,0.004,0.02,-0.057
1670355408.399996,-9.299,-0.196,4.646,-0.6463,-0.3775,0.37560000000000004,0.0,0.007,-0.062
1670355408.439996,-9.266,-0.158,4.627,-0.6435000000000001,-0.3811,0.37560000000000004,-0.005,0.012,-0.053
1670355408.479996,-9.346,-0.193,4.61,-0.6471,-0.38230000000000003,0.3794,0.008,0.02,-0.046
1670355408.519996,-9.34,-0.156,4.5840000000000005,-0.6435000000000001,-0.3796,0.3804,0.009000000000000001,0.031,-0.054
1670355408.559996,-9.311,-0.171,4.581,-0.644,-0.3805,0.3785,0.008,0.034,-0.045
1670355408.5999959,-9.3,-0.171,4.571,-0.6459,-0.38120000000000004,0.3774,0.004,0.03,-0.037
1670355408.639996,-9.338000000000001,-0.14100000000000001,4.5840000000000005,-0.6436000000000001,-0.38170000000000004,0.377,0.022,0.011,-0.047
1670355408.679996,-9.323,-0.178,4.551,-0.645,-0.3816,0.3783,0.016,0.014,-0.062
1670355408.719995,-9.33,-0.17500000000000002,4.579,-0.6435000000000001,-0.38220000000000004,0.3775,0.009000000000000001,0.013000000000000001,-0.055
1670355408.759995,-9.339,-0.176,4.585,-0.6424000000000001,-0.38180000000000003,0.37520000000000003,0.001,0.017,-0.042
1670355408.799995,-9.322000000000001,-0.146,4.581,-0.6432,-0.3795,0.38,0.008,0.021,-0.048
1670355408.839995,-9.323,-0.15,4.569,-0.6447,-0.3801,0.3803,0.007,0.028,-0.047
1670355408.879995,-9.342,-0.183,4.579,-0.6444000000000001,-0.3829,0.3771,0.008,0.018000000000000002,-0.045
1670355408.919995,-9.348,-0.201,4.578,-0.6414000000000001,-0.3805,0.3758,0.006,0.02,-0.053
1670355408.959995,-9.337,-0.136,4.603,-0.6473,-0.38230000000000003,0.3791,0.003,0.006,-0.052000000000000005
1670355408.999995,-9.345,-0.068,4.616,-0.6474000000000001,-0.38380000000000003,0.37610000000000005,0.013000000000000001,0.008,-0.038
1670355409.039995,-9.315,-0.21,4.555,-0.6461,-0.38,0.3806,0.026000000000000002,0.016,-0.053
1670355409.079995,-9.307,-0.125,4.556,-0.6418,-0.3809,0.3775,0.024,0.016,-0.054
1670355409.119995,-9.306000000000001,-0.159,4.5600000000000005,-0.6433,-0.38130000000000003,0.37620000000000003,0.006,0.015,-0.042
1670355409.159995,-9.327,-0.131,4.624,-0.6429,-0.3796,0.37620000000000003,0.0,0.006,-0.045
1670355409.199995,-9.326,-0.126,4.624,-0.6433,-0.38170000000000004,0.36610000000000004,0.002,0.005,-0.054
1670355409.239995,-9.308,-0.193,4.625,-0.6424000000000001,-0.38330000000000003,0.3704,0.006,0.011,-0.059000000000000004
1670355409.279995,-9.308,-0.095,4.625,-0.6424000000000001,-0.3841,0.38480000000000003,-0.009000000000000001,0.01,-0.052000000000000005
1670355409.319995,-9.311,-0.095,4.625,-0.6474000000000001,-0.3841,0.38480000000000003,0.001,0.016,-0.044
1670355409.359995,-9.329,-0.193,4.594,-0.6443,-0.3804,0.387,0.011,0.016,-0.055
1670355409.3999949,-9.319,-0.14,4.643,-0.6553,-0.3856,0.3895,0.014,0.021,-0.05
1670355409.439995,-9.293000000000001,-0.132,4.582,-0.6429,-0.38220000000000004,0.3785,-0.002,0.014,-0.045
1670355409.479995,-9.305,-0.113,4.582,-0.6535000000000001,-0.3831,0.3834,0.009000000000000001,0.006,-0.046
1670355409.519995,-9.327,-0.105,4.579,-0.6436000000000001,-0.3829,0.3791,0.016,0.002,-0.063
1670355409.559995,-9.32,-0.183,4.63,-0.6437,-0.38120000000000004,0.38470000000000004,0.008,0.003,-0.064
1670355409.599995,-9.307,-0.171,4.623,-0.6417,-0.3826,0.3789,-0.004,0.008,-0.048
1670355409.6399949,-9.327,-0.14100000000000001,4.635,-0.6458,-0.38,0.3778,-0.001,0.007,-0.05
1670355409.679995,-9.302,-0.132,4.646,-0.6452,-0.3824,0.3783,0.004,0.014,-0.051000000000000004
1670355409.719995,-9.303,-0.165,4.646,-0.6425000000000001,-0.3816,0.3791,0.005,0.016,-0.052000000000000005
1670355409.759995,-9.283,-0.136,4.634,-0.6468,-0.381,0.383,0.011,0.017,-0.054
1670355409.799995,-9.31,-0.154,4.6610000000000005,-0.6451,-0.38180000000000003,0.37870000000000004,0.004,0.015,-0.045
1670355409.839994,-9.254,-0.134,4.6450000000000005,-0.6419,-0.382,0.3814,-0.002,0.012,-0.045
1670355409.879994,-9.261000000000001,-0.108,4.616,-0.6455000000000001,-0.38170000000000004,0.3783,0.011,0.017,-0.045
1670355409.919994,-9.359,-0.195,4.672,-0.6421,-0.38180000000000003,0.3786,0.01,0.029,-0.051000000000000004
1670355409.959994,-9.273,-0.096,4.622,-0.6415000000000001,-0.3821,0.3773,0.001,0.024,-0.055
1670355409.999994,-9.298,-0.164,4.595,-0.6412,-0.3826,0.3786,-0.018000000000000002,0.022,-0.041
1670355410.039994,-9.312,-0.128,4.606,-0.6436000000000001,-0.3803,0.3775,-0.005,0.015,-0.056
1670355410.079994,-9.335,-0.131,4.674,-0.6432,-0.3804,0.37970000000000004,0.002,0.014,-0.062
1670355410.119994,-9.292,-0.19,4.655,-0.6428,-0.3814,0.3801,-0.006,0.011,-0.064
1670355410.159994,-9.237,-0.128,4.649,-0.6417,-0.37770000000000004,0.377,0.0,0.007,-0.039
1670355410.1999938,-9.323,-0.196,4.6530000000000005,-0.6433,-0.381,0.3768,0.009000000000000001,0.019,-0.051000000000000004
1670355410.239994,-9.311,-0.129,4.633,-0.6411,-0.3804,0.3808,0.02,0.021,-0.059000000000000004
1670355410.279994,-9.27,-0.176,4.624,-0.6449,-0.3819,0.3798,0.004,0.018000000000000002,-0.038
1670355410.319994,-9.290000000000001,-0.146,4.602,-0.6443,-0.3831,0.3811,0.0,0.017,-0.035
1670355410.359994,-9.294,-0.096,4.632,-0.6465000000000001,-0.3804,0.3806,0.009000000000000001,0.012,-0.05
1670355410.399994,-9.33,-0.151,4.643,-0.6438,-0.38220000000000004,0.3788,0.014,0.019,-0.059000000000000004
1670355410.4399939,-9.303,-0.202,4.631,-0.6407,-0.37870000000000004,0.378,-0.03,0.038,-0.032
1670355410.479994,-9.301,-0.116,4.6000000000000005,-0.6417,-0.3816,0.3764,-0.012,0.023,-0.021
1670355410.519994,-9.324,-0.092,4.651,-0.6433,-0.38470000000000004,0.37870000000000004,0.039,0.01,-0.059000000000000004
1670355410.559994,-9.291,-0.137,4.638,-0.6419,-0.38280000000000003,0.38720000000000004,0.044,0.009000000000000001,-0.07
1670355410.599994,-9.273,-0.186,4.612,-0.6414000000000001,-0.38270000000000004,0.37870000000000004,0.009000000000000001,0.013000000000000001,-0.045
1670355410.639994,-9.336,-0.113,4.615,-0.6439,-0.3841,0.38,0.008,0.0,-0.039
1670355410.6799939,-9.277000000000001,-0.113,4.68,-0.6439,-0.38220000000000004,0.38220000000000004,0.01,0.009000000000000001,-0.052000000000000005
1670355410.719994,-9.3,-0.10200000000000001,4.66,-0.6419,-0.38230000000000003,0.38,0.015,0.01,-0.06
1670355410.759994,-9.294,-0.162,4.663,-0.6454000000000001,-0.38280000000000003,0.3778,0.0,0.008,-0.056
1670355410.799994,-9.313,-0.116,4.6690000000000005,-0.6432,-0.38330000000000003,0.3788,-0.001,0.018000000000000002,-0.055
1670355410.839994,-9.242,-0.138,4.689,-0.641,-0.3804,0.3819,-0.003,0.014,-0.057
1670355410.879993,-9.311,-0.10200000000000001,4.662,-0.6435000000000001,-0.37970000000000004,0.38230000000000003,-0.005,0.025,-0.051000000000000004
1670355410.919993,-9.339,-0.147,4.664,-0.6427,-0.3825,0.3794,0.003,0.038,-0.056
1670355410.959993,-9.254,-0.101,4.6530000000000005,-0.6441,-0.381,0.38380000000000003,0.0,0.034,-0.062
1670355410.9999928,-9.266,-0.159,4.62,-0.6453,-0.3825,0.38270000000000004,-0.009000000000000001,0.027,-0.059000000000000004
1670355411.039993,-9.307,-0.159,4.614,-0.6432,-0.3814,0.3773,-0.015,0.029,-0.054
1670355411.079993,-9.345,-0.146,4.667,-0.6418,-0.38,0.3784,-0.007,0.028,-0.07
1670355411.119993,-9.259,-0.199,4.6770000000000005,-0.6458,-0.3794,0.3788,-0.012,0.02,-0.063
1670355411.159993,-9.272,-0.162,4.6450000000000005,-0.6438,-0.3806,0.38,-0.017,0.026000000000000002,-0.051000000000000004
1670355411.199993,-9.345,-0.198,4.658,-0.6469,-0.38330000000000003,0.3816,-0.004,0.031,-0.051000000000000004
1670355411.2399929,-9.319,-0.165,4.607,-0.6435000000000001,-0.3819,0.3821,0.008,0.037,-0.053
1670355411.279993,-9.297,-0.195,4.607,-0.6448,-0.3793,0.37920000000000004,0.007,0.035,-0.047
1670355411.319993,-9.302,-0.17,4.596,-0.6424000000000001,-0.38130000000000003,0.3753,0.002,0.024,-0.038
1670355411.359993,-9.324,-0.122,4.613,-0.6433,-0.3799,0.3789,0.012,0.012,-0.042
1670355411.399993,-9.325000000000001,-0.183,4.587,-0.6427,-0.3796,0.3808,0.025,0.008,-0.061
1670355411.439993,-9.306000000000001,-0.189,4.615,-0.6515000000000001,-0.3798,0.3532,0.013000000000000001,0.011,-0.056
1670355411.4799929,-9.306000000000001,-0.165,4.598,-0.6515000000000001,-0.3803,0.37110000000000004,0.002,0.015,-0.046
1670355411.519993,-9.315,-0.165,4.655,-0.6435000000000001,-0.3803,0.37870000000000004,0.0,0.022,-0.045
1670355411.559993,-9.309000000000001,-0.163,4.655,-0.6475000000000001,-0.38,0.37870000000000004,0.003,0.022,-0.051000000000000004
1670355411.599993,-9.299,-0.161,4.6450000000000005,-0.6448,-0.3826,0.3917,0.005,0.021,-0.05
1670355411.639993,-9.297,-0.147,4.655,-0.6393,-0.38120000000000004,0.37510000000000004,0.005,0.019,-0.047
1670355411.679993,-9.298,-0.14300000000000002,4.636,-0.6474000000000001,-0.3816,0.3745,0.007,0.014,-0.049
1670355411.7199929,-9.294,-0.10300000000000001,4.6000000000000005,-0.6418,-0.38070000000000004,0.3809,0.014,0.012,-0.056
1670355411.759993,-9.328,-0.155,4.621,-0.6423,-0.3816,0.3819,0.013000000000000001,0.016,-0.056
1670355411.799993,-9.339,-0.20700000000000002,4.664,-0.6444000000000001,-0.38230000000000003,0.3805,0.001,0.012,-0.045
1670355411.839993,-9.3,-0.149,4.672,-0.6413,-0.38170000000000004,0.3805,-0.003,0.025,-0.045
1670355411.879993,-9.333,-0.077,4.612,-0.6427,-0.38,0.3826,0.008,0.035,-0.048
1670355411.919992,-9.314,-0.21,4.5760000000000005,-0.6444000000000001,-0.3803,0.3781,0.011,0.026000000000000002,-0.058
1670355411.959992,-9.281,-0.11800000000000001,4.603,-0.6451,-0.3814,0.378,0.004,0.018000000000000002,-0.052000000000000005
1670355411.999992,-9.315,-0.131,4.6290000000000004,-0.6415000000000001,-0.3804,0.3791,-0.004,0.013000000000000001,-0.048
1670355412.0399919,-9.317,-0.129,4.614,-0.643,-0.3798,0.378,0.003,0.006,-0.051000000000000004
1670355412.079992,-9.302,-0.159,4.597,-0.644,-0.3844,0.38120000000000004,0.006,0.011,-0.061
1670355412.119992,-9.309000000000001,-0.21,4.618,-0.6407,-0.3808,0.3796,0.002,0.015,-0.055
1670355412.159992,-9.293000000000001,-0.08700000000000001,4.667,-0.643,-0.3826,0.3784,0.014,0.02,-0.049
1670355412.199992,-9.32,-0.20800000000000002,4.623,-0.6429,-0.3825,0.3791,0.018000000000000002,0.023,-0.058
1670355412.239992,-9.322000000000001,-0.159,4.636,-0.6421,-0.38120000000000004,0.3774,0.012,0.026000000000000002,-0.052000000000000005
1670355412.2799919,-9.289,-0.18,4.585,-0.6451,-0.38120000000000004,0.3809,0.001,0.022,-0.039
1670355412.319992,-9.299,-0.107,4.596,-0.6451,-0.3835,0.3819,0.005,0.013000000000000001,-0.046
1670355412.359992,-9.311,-0.125,4.6370000000000005,-0.6414000000000001,-0.3801,0.3793,0.014,0.009000000000000001,-0.057
1670355412.399992,-9.311,-0.167,4.6530000000000005,-0.643,-0.3816,0.3808,0.003,0.006,-0.058
1670355412.439992,-9.3,-0.14,4.626,-0.643,-0.381,0.3783,-0.003,0.012,-0.05
1670355412.479992,-9.292,-0.14,4.6290000000000004,-0.6427,-0.3806,0.379,-0.004,0.013000000000000001,-0.044
1670355412.5199919,-9.309000000000001,-0.135,4.635,-0.6412,-0.382,0.3791,0.004,0.016,-0.053
1670355412.559992,-9.294,-0.167,4.6370000000000005,-0.6465000000000001,-0.3809,0.3801,0.01,0.014,-0.055
1670355412.599992,-9.289,-0.159,4.628,-0.6487,-0.3816,0.37920000000000004,0.004,0.008,-0.047
1670355412.639992,-9.287,-0.14300000000000002,4.673,-0.6413,-0.3836,0.38220000000000004,0.011,0.012,-0.049
1670355412.679992,-9.303,-0.14,4.643,-0.6422,-0.3809,0.38180000000000003,0.013000000000000001,0.017,-0.051000000000000004
1670355412.719992,-9.304,-0.158,4.664,-0.6436000000000001,-0.3826,0.3793,0.012,0.021,-0.049
1670355412.759992,-9.284,-0.14300000000000002,4.627,-0.6433,-0.3798,0.3811,0.009000000000000001,0.025,-0.054
1670355412.799992,-9.3,-0.178,4.6770000000000005,-0.6472,-0.38430000000000003,0.3765,0.002,0.022,-0.045
1670355412.839992,-9.345,-0.161,4.6530000000000005,-0.6437,-0.3816,0.3794,-0.005,0.021,-0.05
1670355412.879992,-9.364,-0.035,4.6610000000000005,-0.6422,-0.3829,0.378,0.003,0.028,-0.053
1670355412.919992,-9.285,-0.18,4.558,-0.6412,-0.3806,0.3795,0.006,0.017,-0.062
1670355412.959991,-9.262,-0.184,4.566,-0.6406000000000001,-0.38270000000000004,0.38070000000000004,-0.002,0.02,-0.053
1670355412.999991,-9.282,-0.132,4.6450000000000005,-0.6436000000000001,-0.3798,0.383,-0.008,0.006,-0.041
1670355413.039991,-9.317,-0.126,4.708,-0.6439,-0.37920000000000004,0.3808,0.007,0.007,-0.057
1670355413.0799909,-9.305,-0.17,4.654,-0.6439,-0.3804,0.3801,0.005,0.012,-0.059000000000000004
1670355413.119991,-9.315,-0.199,4.658,-0.6431,-0.38180000000000003,0.3829,-0.001,0.014,-0.056
1670355413.159991,-9.315,-0.083,4.67,-0.6456000000000001,-0.37970000000000004,0.378,0.003,0.006,-0.045
1670355413.199991,-9.334,-0.162,4.643,-0.643,-0.38280000000000003,0.3801,0.008,0.02,-0.043000000000000003
1670355413.239991,-9.296,-0.17400000000000002,4.646,-0.6432,-0.381,0.3793,0.002,0.028,-0.051000000000000004
1670355413.279991,-9.276,-0.157,4.656,-0.6438,-0.3798,0.3811,-0.004,0.027,-0.045
1670355413.3199909,-9.279,-0.10200000000000001,4.598,-0.6435000000000001,-0.3806,0.3806,-0.004,0.011,-0.045
1670355413.359991,-9.314,-0.11,4.622,-0.6414000000000001,-0.3811,0.3791,0.009000000000000001,0.009000000000000001,-0.058
1670355413.399991,-9.279,-0.189,4.604,-0.6424000000000001,-0.3788,0.3796,0.0,0.014,-0.068
1670355413.439991,-9.287,-0.164,4.641,-0.6475000000000001,-0.3829,0.3821,-0.006,0.013000000000000001,-0.058
1670355413.479991,-9.301,-0.161,4.647,-0.6432,-0.38170000000000004,0.3776,-0.007,0.013000000000000001,-0.056
1670355413.519991,-9.304,-0.161,4.648,-0.6442,-0.3806,0.3793,-0.004,0.02,-0.062
1670355413.559991,-9.305,-0.171,4.624,-0.6504,-0.37970000000000004,0.37720000000000004,0.0,0.015,-0.054
1670355413.599991,-9.285,-0.193,4.682,-0.6489,-0.3819,0.3855,0.003,0.014,-0.054
1670355413.639991,-9.290000000000001,-0.186,4.6290000000000004,-0.6454000000000001,-0.3795,0.3891,0.004,0.012,-0.049
1670355413.679991,-9.304,-0.184,4.6690000000000005,-0.6488,-0.3806,0.3764,0.007,0.014,-0.055
1670355413.719991,-9.304,-0.185,4.688,-0.6488,-0.3794,0.387,0.01,0.017,-0.049
1670355413.759991,-9.297,-0.185,4.665,-0.6461,-0.3794,0.387,0.009000000000000001,0.017,-0.047
1670355413.799991,-9.299,-0.198,4.665,-0.6429,-0.3811,0.3849,0.01,0.023,-0.049
1670355413.839991,-9.290000000000001,-0.20700000000000002,4.683,-0.6482,-0.3816,0.3584,0.0,0.023,-0.047
1670355413.879991,-9.291,-0.165,4.681,-0.6456000000000001,-0.38,0.386,0.0,0.026000000000000002,-0.04
1670355413.919991,-9.302,-0.10400000000000001,4.657,-0.6435000000000001,-0.3794,0.38170000000000004,0.02,0.029,-0.05
1670355413.959991,-9.306000000000001,-0.213,4.601,-0.6441,-0.3805,0.378,0.013000000000000001,0.024,-0.049
1670355413.99999,-9.237,-0.162,4.673,-0.6433,-0.3808,0.3808,0.027,0.014,-0.053
1670355414.03999,-9.333,-0.10200000000000001,4.596,-0.6421,-0.3805,0.3783,0.019,0.015,-0.059000000000000004
1670355414.07999,-9.271,-0.192,4.665,-0.6433,-0.38230000000000003,0.38280000000000003,0.022,0.012,-0.058
1670355414.1199899,-9.343,-0.164,4.686,-0.6432,-0.3846,0.3781,0.015,0.018000000000000002,-0.057
1670355414.15999,-9.353,-0.216,4.5840000000000005,-0.6422,-0.3799,0.3816,0.0,0.013000000000000001,-0.049
1670355414.19999,-9.268,-0.107,4.704,-0.645,-0.3829,0.3786,0.013000000000000001,0.031,-0.051000000000000004
1670355414.23999,-9.309000000000001,-0.19,4.622,-0.6435000000000001,-0.38,0.3806,0.006,0.038,-0.036000000000000004
1670355414.27999,-9.302,-0.15,4.6000000000000005,-0.6468,-0.3809,0.38180000000000003,-0.003,0.043000000000000003,-0.033
1670355414.31999,-9.269,-0.07,4.679,-0.6439,-0.3814,0.3803,0.001,0.051000000000000004,-0.047
1670355414.35999,-9.292,-0.122,4.619,-0.6495000000000001,-0.38380000000000003,0.3907,-0.005,0.058,-0.054
1670355414.39999,-9.306000000000001,-0.155,4.569,-0.6406000000000001,-0.38230000000000003,0.3776,-0.005,0.031,-0.052000000000000005
1670355414.43999,-9.355,-0.159,4.54,-0.6414000000000001,-0.37920000000000004,0.3781,-0.007,0.038,-0.052000000000000005
1670355414.47999,-9.324,-0.149,4.5760000000000005,-0.6433,-0.3819,0.37820000000000004,0.003,0.054,-0.062
1670355414.51999,-9.436,-0.162,4.562,-0.6394000000000001,-0.382,0.37920000000000004,-0.07,0.212,-0.01
1670355414.55999,-9.189,-0.292,4.657,-0.6418,-0.3814,0.3754,-0.055,0.177,-0.032
1670355414.59999,-9.516,-0.018000000000000002,4.522,-0.6441,-0.3819,0.3743,-0.003,0.203,-0.039
1670355414.63999,-9.266,-0.158,4.344,-0.6353,-0.3801,0.374,0.023,0.132,-0.08
1670355414.67999,-9.421,-0.14400000000000002,4.337,-0.6323000000000001,-0.3773,0.374,0.034,0.016,-0.069
1670355414.71999,-9.529,-0.187,4.348,-0.6342,-0.3829,0.3729,0.003,0.015,-0.064
1670355414.75999,-9.382,-0.152,4.487,-0.6352,-0.37770000000000004,0.3728,0.08,0.0,-0.122
1670355414.79999,-9.405,-0.211,4.4670000000000005,-0.6371,-0.3804,0.37370000000000003,0.1,0.004,-0.107
1670355414.83999,-9.445,-0.199,4.345,-0.6375000000000001,-0.3805,0.3728,0.06,-0.025,-0.07100000000000001
1670355414.87999,-9.445,-0.192,4.271,-0.6372,-0.3808,0.3755,0.056,-0.078,-0.052000000000000005
1670355414.91999,-9.395,-0.189,4.353,-0.6367,-0.3815,0.3728,0.028,-0.088,-0.045
1670355414.95999,-9.418000000000001,-0.17500000000000002,4.446,-0.6412,-0.3801,0.3784,0.019,-0.089,-0.033
1670355414.99999,-9.417,-0.152,4.535,-0.6419,-0.3805,0.37510000000000004,0.029,-0.073,-0.04
1670355415.039989,-9.369,-0.193,4.61,-0.6402,-0.38230000000000003,0.38120000000000004,0.028,-0.046,-0.056
1670355415.079989,-9.283,-0.132,4.549,-0.6393,-0.38230000000000003,0.3789,0.02,-0.036000000000000004,-0.054
1670355415.119989,-9.384,-0.10400000000000001,4.534,-0.6433,-0.38280000000000003,0.3796,0.03,-0.01,-0.063
1670355415.1599889,-9.332,-0.128,4.541,-0.642,-0.3856,0.3819,0.018000000000000002,-0.005,-0.048
1670355415.199989,-9.292,-0.084,4.609,-0.6417,-0.3861,0.3808,0.018000000000000002,-0.001,-0.037
1670355415.239989,-9.342,-0.073,4.664,-0.6445000000000001,-0.38480000000000003,0.38220000000000004,0.019,-0.001,-0.041
1670355415.279989,-9.323,-0.053,4.61,-0.6409,-0.38280000000000003,0.38220000000000004,0.033,0.0,-0.053
1670355415.319989,-9.337,-0.091,4.589,-0.6422,-0.3859,0.3806,0.026000000000000002,0.003,-0.056
1670355415.359989,-9.343,-0.116,4.5600000000000005,-0.6405000000000001,-0.38720000000000004,0.3798,0.004,0.009000000000000001,-0.054
1670355415.399989,-9.323,-0.089,4.588,-0.6411,-0.3859,0.3836,-0.004,0.01,-0.046
1670355415.439989,-9.314,-0.092,4.606,-0.6422,-0.3871,0.38,-0.001,0.009000000000000001,-0.051000000000000004
1670355415.479989,-9.309000000000001,-0.1,4.688,-0.643,-0.385,0.38180000000000003,-0.01,0.01,-0.056
1670355415.519989,-9.308,-0.111,4.672,-0.6404000000000001,-0.38580000000000003,0.3841,-0.008,0.01,-0.061
1670355415.559989,-9.242,-0.106,4.673,-0.6419,-0.38330000000000003,0.38330000000000003,-0.002,0.009000000000000001,-0.061
1670355415.599989,-9.321,-0.155,4.655,-0.6438,-0.38430000000000003,0.3786,0.003,0.006,-0.058
1670355415.639989,-9.389,-0.064,4.671,-0.6429,-0.3844,0.3845,0.019,0.008,-0.046
1670355415.679989,-9.314,-0.129,4.605,-0.6496000000000001,-0.386,0.38370000000000004,0.02,0.024,-0.057
1670355415.719989,-9.279,-0.122,4.589,-0.6432,-0.38580000000000003,0.3811,0.015,0.026000000000000002,-0.053
1670355415.759989,-9.305,-0.099,4.616,-0.6429,-0.3834,0.3821,0.005,0.024,-0.038
1670355415.799989,-9.296,-0.073,4.64,-0.6458,-0.38470000000000004,0.3829,0.004,0.022,-0.044
1670355415.839989,-9.304,-0.085,4.67,-0.6433,-0.38380000000000003,0.3825,0.008,0.016,-0.047
1670355415.879989,-9.327,-0.15,4.609,-0.6413,-0.385,0.37110000000000004,0.002,0.007,-0.058
1670355415.919989,-9.331,-0.068,4.655,-0.645,-0.385,0.38230000000000003,0.0,-0.002,-0.051000000000000004
1670355415.959989,-9.331,-0.101,4.6450000000000005,-0.645,-0.385,0.3781,0.0,0.01,-0.052000000000000005
1670355415.999989,-9.359,-0.101,4.6450000000000005,-0.6447,-0.3836,0.3781,-0.001,0.02,-0.056
1670355416.039989,-9.299,-0.09,4.616,-0.6426000000000001,-0.3824,0.3952,-0.003,0.013000000000000001,-0.05
1670355416.079988,-9.273,-0.112,4.636,-0.6446000000000001,-0.38520000000000004,0.3693,-0.006,0.006,-0.047
1670355416.119988,-9.278,-0.076,4.671,-0.6454000000000001,-0.38670000000000004,0.384,0.003,0.008,-0.059000000000000004
1670355416.159988,-9.290000000000001,-0.093,4.671,-0.6461,-0.38220000000000004,0.3769,0.008,0.007,-0.066
1670355416.199988,-9.308,-0.14300000000000002,4.6610000000000005,-0.6443,-0.3841,0.3801,0.004,0.002,-0.055
1670355416.239988,-9.312,-0.123,4.67,-0.6446000000000001,-0.38570000000000004,0.38230000000000003,-0.001,0.009000000000000001,-0.049
1670355416.279988,-9.306000000000001,-0.11800000000000001,4.626,-0.6449,-0.38230000000000003,0.3834,0.006,0.009000000000000001,-0.051000000000000004
1670355416.319988,-9.285,-0.10400000000000001,4.671,-0.6447,-0.38280000000000003,0.38220000000000004,0.013000000000000001,0.012,-0.053
1670355416.359988,-9.258000000000001,-0.132,4.668,-0.6465000000000001,-0.3861,0.38830000000000003,0.004,0.012,-0.042
1670355416.399988,-9.238,-0.113,4.687,-0.6445000000000001,-0.3851,0.3836,0.0,0.008,-0.04
1670355416.439988,-9.269,-0.10400000000000001,4.658,-0.6555000000000001,-0.3894,0.38720000000000004,0.019,0.014,-0.045
1670355416.479988,-9.327,-0.113,4.674,-0.6428,-0.38270000000000004,0.3815,0.021,0.02,-0.059000000000000004
1670355416.519988,-9.257,-0.13,4.622,-0.6458,-0.38580000000000003,0.3889,0.018000000000000002,0.026000000000000002,-0.064
1670355416.559988,-9.266,-0.099,4.634,-0.6429,-0.38280000000000003,0.38420000000000004,0.002,0.014,-0.036000000000000004
1670355416.599988,-9.315,-0.128,4.692,-0.6448,-0.3849,0.3815,0.005,0.017,-0.034
1670355416.639988,-9.33,-0.082,4.766,-0.6455000000000001,-0.38570000000000004,0.38230000000000003,0.017,0.025,-0.055
1670355416.679988,-9.239,-0.138,4.715,-0.6438,-0.38520000000000004,0.3839,0.006,0.025,-0.067
1670355416.719988,-9.23,-0.083,4.654,-0.6451,-0.3834,0.3816,-0.003,0.035,-0.045
1670355416.759988,-9.328,-0.128,4.642,-0.6428,-0.38670000000000004,0.3829,0.003,0.03,-0.041
1670355416.799988,-9.331,-0.034,4.631,-0.6436000000000001,-0.386,0.38320000000000004,0.007,0.03,-0.052000000000000005
1670355416.839988,-9.26,-0.097,4.625,-0.6438,-0.3849,0.3796,0.005,0.026000000000000002,-0.055
1670355416.879988,-9.251,-0.116,4.621,-0.6452,-0.3849,0.3816,-0.001,0.01,-0.051000000000000004
1670355416.919988,-9.314,-0.093,4.633,-0.6444000000000001,-0.382,0.38180000000000003,0.004,0.0,-0.057
1670355416.959988,-9.314,-0.09,4.695,-0.6429,-0.3861,0.38480000000000003,0.001,0.005,-0.067
1670355416.999988,-9.296,-0.151,4.712,-0.6424000000000001,-0.38230000000000003,0.3854,-0.001,-0.001,-0.061
1670355417.039988,-9.273,-0.137,4.704,-0.6458,-0.3835,0.3808,-0.007,0.003,-0.061
1670355417.079988,-9.303,-0.149,4.691,-0.6466000000000001,-0.3814,0.3836,-0.006,0.016,-0.057
1670355417.119987,-9.299,-0.111,4.705,-0.6457,-0.38370000000000004,0.3825,-0.004,0.018000000000000002,-0.059000000000000004
1670355417.159987,-9.231,-0.131,4.687,-0.6444000000000001,-0.38270000000000004,0.3845,0.0,0.021,-0.055
1670355417.199987,-9.251,-0.163,4.664,-0.6465000000000001,-0.38330000000000003,0.3836,-0.001,0.021,-0.051000000000000004
1670355417.239987,-9.318,-0.17400000000000002,4.6770000000000005,-0.6444000000000001,-0.3836,0.38370000000000004,0.0,0.018000000000000002,-0.057
1670355417.279987,-9.314,-0.078,4.718,-0.6446000000000001,-0.384,0.3836,0.008,0.032,-0.053
1670355417.319987,-9.244,-0.153,4.639,-0.6428,-0.38180000000000003,0.3824,0.014,0.016,-0.05
1670355417.359987,-9.24,-0.129,4.636,-0.6447,-0.382,0.3809,0.01,0.012,-0.045
1670355417.399987,-9.283,-0.148,4.67,-0.6451,-0.3831,0.3829,0.008,0.009000000000000001,-0.045
1670355417.439987,-9.301,-0.105,4.696,-0.646,-0.38620000000000004,0.3834,0.006,0.006,-0.054
1670355417.479987,-9.257,-0.183,4.71,-0.6484,-0.38330000000000003,0.38280000000000003,0.01,0.008,-0.061
1670355417.519987,-9.224,-0.10400000000000001,4.672,-0.6471,-0.38430000000000003,0.3831,0.0,0.001,-0.041
1670355417.559987,-9.324,-0.168,4.6850000000000005,-0.643,-0.38330000000000003,0.3825,0.0,0.018000000000000002,-0.048
1670355417.599987,-9.3,-0.13,4.666,-0.6483,-0.38330000000000003,0.384,0.011,0.031,-0.057
1670355417.639987,-9.247,-0.132,4.68,-0.6463,-0.3844,0.38430000000000003,0.008,0.019,-0.043000000000000003
1670355417.679987,-9.25,-0.116,4.676,-0.6449,-0.3866,0.3856,0.002,0.014,-0.041
1670355417.719987,-9.291,-0.084,4.737,-0.6471,-0.3835,0.3834,0.012,0.009000000000000001,-0.051000000000000004
1670355417.759987,-9.263,-0.124,4.687,-0.646,-0.3829,0.3834,0.018000000000000002,0.005,-0.065
1670355417.799987,-9.274000000000001,-0.134,4.6930000000000005,-0.6432,-0.38470000000000004,0.3845,0.009000000000000001,0.012,-0.054
1670355417.839987,-9.289,-0.14200000000000002,4.703,-0.6455000000000001,-0.3831,0.3811,-0.003,0.018000000000000002,-0.052000000000000005
1670355417.879987,-9.273,-0.115,4.699,-0.6498,-0.38320000000000004,0.38470000000000004,-0.001,0.024,-0.05
1670355417.919987,-9.281,-0.151,4.72,-0.6507000000000001,-0.3841,0.38380000000000003,0.0,0.025,-0.051000000000000004
1670355417.959987,-9.264,-0.14200000000000002,4.652,-0.6464000000000001,-0.3831,0.3831,0.001,0.026000000000000002,-0.052000000000000005
1670355417.999987,-9.283,-0.123,4.7010000000000005,-0.6458,-0.3836,0.38,0.0,0.022,-0.055
1670355418.0399868,-9.251,-0.191,4.673,-0.6445000000000001,-0.3839,0.38330000000000003,-0.004,0.017,-0.056
1670355418.079987,-9.32,-0.161,4.703,-0.6457,-0.3845,0.3826,-0.001,0.011,-0.053
1670355418.119987,-9.356,-0.044,4.687,-0.6476000000000001,-0.38430000000000003,0.37310000000000004,0.009000000000000001,0.009000000000000001,-0.036000000000000004
1670355418.159986,-9.27,-0.164,4.694,-0.6447,-0.38420000000000004,0.378,0.019,0.023,-0.052000000000000005
1670355418.199986,-9.27,-0.164,4.659,-0.6447,-0.38420000000000004,0.39380000000000004,0.018000000000000002,0.028,-0.056
1670355418.239986,-9.236,-0.145,4.659,-0.6457,-0.38470000000000004,0.39380000000000004,0.006,0.023,-0.047
1670355418.279986,-9.276,-0.14,4.679,-0.6466000000000001,-0.3859,0.41040000000000004,0.009000000000000001,0.021,-0.051000000000000004
1670355418.319986,-9.297,-0.128,4.694,-0.6462,-0.38570000000000004,0.3806,0.001,0.016,-0.048
1670355418.359986,-9.298,-0.133,4.712,-0.6474000000000001,-0.3876,0.4047,0.0,0.014,-0.056
1670355418.399986,-9.288,-0.19,4.664,-0.6497,-0.38230000000000003,0.3819,-0.002,0.009000000000000001,-0.041
1670355418.439986,-9.276,-0.064,4.697,-0.6528,-0.38220000000000004,0.38870000000000005,0.006,0.023,-0.044
1670355418.479986,-9.314,-0.121,4.667,-0.6447,-0.38380000000000003,0.3836,0.007,0.033,-0.047
1670355418.519986,-9.282,-0.123,4.655,-0.6474000000000001,-0.38380000000000003,0.3891,0.012,0.034,-0.042
1670355418.559986,-9.284,-0.131,4.7010000000000005,-0.645,-0.38470000000000004,0.3805,0.011,0.022,-0.043000000000000003
1670355418.599986,-9.261000000000001,-0.077,4.676,-0.6559,-0.38770000000000004,0.392,0.013000000000000001,0.012,-0.047
1670355418.639986,-9.302,-0.11,4.696,-0.6426000000000001,-0.385,0.3831,0.016,0.009000000000000001,-0.06
1670355418.679986,-9.295,-0.129,4.674,-0.6479,-0.38480000000000003,0.384,0.012,0.013000000000000001,-0.053
1670355418.719986,-9.275,-0.12,4.6850000000000005,-0.6465000000000001,-0.38420000000000004,0.38670000000000004,0.0,0.011,-0.044
1670355418.759986,-9.255,-0.11,4.681,-0.6477,-0.3866,0.38920000000000005,0.0,0.016,-0.053
1670355418.799986,-9.290000000000001,-0.114,4.66,-0.646,-0.3856,0.3835,0.0,0.017,-0.056
1670355418.8399858,-9.288,-0.15,4.6850000000000005,-0.6482,-0.3859,0.3834,0.003,0.019,-0.051000000000000004
1670355418.879986,-9.287,-0.121,4.679,-0.6469,-0.3814,0.3804,0.005,0.018000000000000002,-0.047
1670355418.919986,-9.274000000000001,-0.126,4.674,-0.646,-0.38220000000000004,0.38330000000000003,0.008,0.013000000000000001,-0.049
1670355418.959986,-9.285,-0.129,4.6770000000000005,-0.644,-0.38470000000000004,0.3841,0.012,0.011,-0.047
1670355418.999986,-9.277000000000001,-0.123,4.684,-0.6462,-0.3851,0.385,0.011,0.016,-0.042
1670355419.039986,-9.281,-0.107,4.69,-0.646,-0.3856,0.3844,0.007,0.018000000000000002,-0.042
1670355419.0799859,-9.293000000000001,-0.105,4.698,-0.6456000000000001,-0.38580000000000003,0.38430000000000003,0.012,0.018000000000000002,-0.056
1670355419.119986,-9.287,-0.12,4.674,-0.6466000000000001,-0.385,0.3845,0.005,0.025,-0.05
1670355419.159986,-9.256,-0.113,4.7,-0.6451,-0.38530000000000003,0.385,0.008,0.029,-0.047
1670355419.199986,-9.253,-0.034,4.682,-0.6441,-0.3855,0.3836,0.026000000000000002,0.01,-0.052000000000000005
1670355419.239986,-9.269,-0.166,4.627,-0.6477,-0.3839,0.3816,0.017,0.008,-0.063
1670355419.279985,-9.275,-0.11900000000000001,4.598,-0.6467,-0.3875,0.3811,-0.001,0.015,-0.05
1670355419.319985,-9.265,-0.08600000000000001,4.697,-0.6468,-0.3841,0.3809,-0.001,0.009000000000000001,-0.045
1670355419.359985,-9.301,-0.088,4.679,-0.6438,-0.38530000000000003,0.3825,0.012,0.007,-0.057
1670355419.399985,-9.287,-0.114,4.7090000000000005,-0.6466000000000001,-0.3879,0.38130000000000003,0.013000000000000001,0.004,-0.061
1670355419.439985,-9.252,-0.155,4.748,-0.6449,-0.38330000000000003,0.3844,0.0,0.009000000000000001,-0.056
1670355419.479985,-9.224,-0.09,4.73,-0.6476000000000001,-0.3819,0.38520000000000004,-0.004,0.008,-0.044
1670355419.519985,-9.3,-0.158,4.703,-0.6457,-0.38380000000000003,0.38220000000000004,0.005,0.02,-0.042
1670355419.559985,-9.281,-0.079,4.706,-0.6446000000000001,-0.3844,0.38280000000000003,0.009000000000000001,0.024,-0.051000000000000004
1670355419.599985,-9.269,-0.139,4.724,-0.6452,-0.384,0.38170000000000004,0.004,0.027,-0.047
1670355419.6399848,-9.255,-0.08600000000000001,4.6770000000000005,-0.6457,-0.38430000000000003,0.38480000000000003,-0.013000000000000001,0.017,-0.039
1670355419.679985,-9.284,-0.043000000000000003,4.694,-0.6482,-0.3845,0.3836,-0.006,0.017,-0.052000000000000005
1670355419.719985,-9.27,-0.098,4.7010000000000005,-0.6474000000000001,-0.3839,0.3884,0.009000000000000001,0.01,-0.061
1670355419.759985,-9.27,-0.129,4.694,-0.6447,-0.3856,0.3906,-0.004,0.013000000000000001,-0.055
1670355419.799985,-9.264,-0.14100000000000001,4.7090000000000005,-0.6453,-0.3831,0.3846,-0.018000000000000002,0.016,-0.054
1670355419.839985,-9.256,-0.098,4.7,-0.6428,-0.3849,0.3825,-0.016,0.018000000000000002,-0.05
1670355419.8799849,-9.257,-0.10300000000000001,4.731,-0.6453,-0.3836,0.3845,-0.011,0.016,-0.061
1670355419.919985,-9.257,-0.116,4.719,-0.6447,-0.3836,0.38270000000000004,-0.007,0.017,-0.06
1670355419.959985,-9.255,-0.14400000000000002,4.7010000000000005,-0.6473,-0.3819,0.3834,0.0,0.012,-0.058
1670355419.999985,-9.26,-0.134,4.699,-0.6466000000000001,-0.3849,0.38420000000000004,-0.004,0.007,-0.052000000000000005
1670355420.039985,-9.277000000000001,-0.131,4.745,-0.644,-0.3835,0.38370000000000004,0.004,0.006,-0.05
1670355420.079985,-9.264,-0.14400000000000002,4.748,-0.6448,-0.3839,0.383,0.001,0.011,-0.049
1670355420.1199849,-9.286,-0.135,4.716,-0.6485000000000001,-0.384,0.38530000000000003,0.013000000000000001,0.018000000000000002,-0.043000000000000003
1670355420.159985,-9.252,-0.131,4.758,-0.6485000000000001,-0.38420000000000004,0.3841,0.019,0.014,-0.05
1670355420.199985,-9.244,-0.14,4.727,-0.6461,-0.38230000000000003,0.38420000000000004,0.014,0.018000000000000002,-0.054
1670355420.239985,-9.204,-0.134,4.751,-0.6457,-0.38430000000000003,0.384,-0.001,0.012,-0.052000000000000005
1670355420.279985,-9.226,-0.10300000000000001,4.699,-0.6459,-0.3845,0.38380000000000003,-0.003,0.014,-0.037
1670355420.319984,-9.283,-0.149,4.732,-0.6475000000000001,-0.3831,0.38380000000000003,0.009000000000000001,0.013000000000000001,-0.049
1670355420.359984,-9.205,-0.117,4.7170000000000005,-0.6465000000000001,-0.38480000000000003,0.3987,0.017,0.022,-0.063
1670355420.399984,-9.239,-0.147,4.71,-0.6458,-0.38520000000000004,0.3744,0.011,0.013000000000000001,-0.05
1670355420.4399838,-9.239,-0.147,4.736,-0.6458,-0.38520000000000004,0.39630000000000004,-0.002,0.012,-0.032
1670355420.479984,-9.273,-0.117,4.767,-0.648,-0.3839,0.4096,0.008,0.005,-0.049
1670355420.519984,-9.241,-0.096,4.767,-0.6573,-0.38530000000000003,0.4096,0.015,0.008,-0.055
1670355420.559984,-9.228,-0.149,4.764,-0.6458,-0.383,0.3639,0.001,0.003,-0.052000000000000005
1670355420.599984,-9.188,-0.149,4.749,-0.6497,-0.3844,0.3889,0.005,0.008,-0.045
1670355420.639984,-9.262,-0.13,4.78,-0.6476000000000001,-0.3869,0.3776,0.013000000000000001,0.016,-0.051000000000000004
1670355420.6799839,-9.288,-0.095,4.755,-0.6609,-0.3899,0.39490000000000003,0.017,0.025,-0.049
1670355420.719984,-9.194,-0.124,4.704,-0.6444000000000001,-0.38330000000000003,0.3845,0.008,0.024,-0.042
1670355420.759984,-9.227,-0.096,4.7090000000000005,-0.6504,-0.3845,0.3869,0.0,0.017,-0.044
1670355420.799984,-9.26,-0.063,4.758,-0.6469,-0.38480000000000003,0.38470000000000004,0.008,0.003,-0.062
1670355420.839984,-9.27,-0.108,4.761,-0.6475000000000001,-0.385,0.385,0.008,0.011,-0.057
1670355420.879984,-9.207,-0.135,4.731,-0.6476000000000001,-0.3854,0.3841,-0.003,0.011,-0.054
1670355420.9199839,-9.251,-0.136,4.745,-0.6482,-0.3859,0.3841,-0.005,0.016,-0.051000000000000004
1670355420.959984,-9.229000000000001,-0.126,4.759,-0.6472,-0.38280000000000003,0.3849,-0.005,0.021,-0.054
1670355420.999984,-9.241,-0.129,4.775,-0.6472,-0.3841,0.38470000000000004,-0.003,0.029,-0.052000000000000005
1670355421.039984,-9.233,-0.14,4.738,-0.6476000000000001,-0.38320000000000004,0.3844,-0.001,0.024,-0.056
1670355421.079984,-9.219,-0.138,4.7540000000000004,-0.6475000000000001,-0.38380000000000003,0.3839,0.0,0.016,-0.052000000000000005
1670355421.119984,-9.225,-0.114,4.78,-0.6457,-0.3816,0.38480000000000003,0.0,0.02,-0.051000000000000004
1670355421.1599839,-9.232,-0.14400000000000002,4.72,-0.6445000000000001,-0.38370000000000004,0.3845,0.001,0.018000000000000002,-0.052000000000000005
1670355421.199984,-9.247,-0.139,4.731,-0.6467,-0.383,0.385,0.006,0.021,-0.057
1670355421.239984,-9.244,-0.139,4.734,-0.6493,-0.3854,0.3861,0.0,0.02,-0.051000000000000004
1670355421.279984,-9.236,-0.116,4.773,-0.6469,-0.3839,0.3856,-0.002,0.016,-0.044
1670355421.319984,-9.261000000000001,-0.114,4.72,-0.6486000000000001,-0.3835,0.38480000000000003,0.006,0.016,-0.033
1670355421.359983,-9.275,-0.151,4.731,-0.6465000000000001,-0.38480000000000003,0.3855,0.016,0.02,-0.053
1670355421.399983,-9.204,-0.091,4.726,-0.6435000000000001,-0.3841,0.3825,0.013000000000000001,0.02,-0.056
1670355421.439983,-9.227,-0.123,4.6770000000000005,-0.6453,-0.38380000000000003,0.38420000000000004,0.007,0.015,-0.038
1670355421.4799829,-9.237,-0.128,4.746,-0.643,-0.38270000000000004,0.387,0.006,0.011,-0.055
1670355421.519983,-9.247,-0.11,4.783,-0.6478,-0.3836,0.3845,0.011,0.007,-0.057
1670355421.559983,-9.199,-0.161,4.752,-0.6473,-0.38420000000000004,0.3855,0.0,0.01,-0.062
1670355421.599983,-9.18,-0.08,4.795,-0.6468,-0.3835,0.3864,0.0,0.008,-0.045
1670355421.639983,-9.263,-0.165,4.742,-0.649,-0.386,0.3906,0.01,0.023,-0.051000000000000004
1670355421.679983,-9.264,-0.123,4.739,-0.6471,-0.3855,0.3841,0.01,0.025,-0.057
1670355421.7199829,-9.185,-0.116,4.727,-0.6505000000000001,-0.3869,0.38630000000000003,0.012,0.018000000000000002,-0.034
1670355421.759983,-9.227,-0.10400000000000001,4.769,-0.648,-0.38480000000000003,0.3866,0.005,0.011,-0.042
1670355421.799983,-9.249,-0.09,4.764,-0.6483,-0.38470000000000004,0.3881,0.015,0.009000000000000001,-0.058
1670355421.839983,-9.253,-0.146,4.766,-0.6496000000000001,-0.385,0.38530000000000003,0.009000000000000001,0.009000000000000001,-0.063
1670355421.879983,-9.236,-0.123,4.7540000000000004,-0.6487,-0.3845,0.38420000000000004,0.0,0.011,-0.047
1670355421.919983,-9.247,-0.139,4.761,-0.6489,-0.3839,0.3846,-0.003,0.02,-0.051000000000000004
1670355421.9599829,-9.22,-0.105,4.765,-0.6483,-0.38530000000000003,0.38520000000000004,-0.006,0.022,-0.056
1670355421.999983,-9.223,-0.137,4.777,-0.6487,-0.3869,0.38370000000000004,-0.003,0.026000000000000002,-0.063
1670355422.039983,-9.214,-0.128,4.811,-0.6493,-0.38630000000000003,0.3834,-0.004,0.018000000000000002,-0.05
1670355422.079983,-9.23,-0.147,4.776,-0.6486000000000001,-0.38380000000000003,0.38630000000000003,-0.001,0.014,-0.05
1670355422.119983,-9.221,-0.11,4.739,-0.6477,-0.3836,0.3854,0.009000000000000001,0.016,-0.056
1670355422.159983,-9.258000000000001,-0.135,4.795,-0.6474000000000001,-0.3855,0.3844,0.012,0.016,-0.051000000000000004
1670355422.199983,-9.229000000000001,-0.165,4.769,-0.6495000000000001,-0.3844,0.3846,0.012,0.02,-0.054
1670355422.239983,-9.25,-0.148,4.791,-0.6465000000000001,-0.38380000000000003,0.38620000000000004,-0.001,0.021,-0.044
1670355422.279983,-9.291,-0.023,4.746,-0.6457,-0.3851,0.3864,0.002,0.028,-0.032
1670355422.319983,-9.244,-0.159,4.745,-0.648,-0.3839,0.38220000000000004,0.013000000000000001,0.036000000000000004,-0.05
1670355422.359983,-9.17,-0.135,4.703,-0.6444000000000001,-0.38470000000000004,0.38530000000000003,0.009000000000000001,0.036000000000000004,-0.051000000000000004
1670355422.399982,-9.242,-0.11,4.739,-0.6517000000000001,-0.3826,0.38530000000000003,0.0,0.02,-0.044
1670355422.439982,-9.297,-0.105,4.801,-0.6471,-0.385,0.38330000000000003,-0.003,0.02,-0.05
1670355422.479982,-9.237,-0.125,4.8260000000000005,-0.6483,-0.3846,0.3856,0.011,0.017,-0.055
1670355422.5199819,-9.227,-0.162,4.74,-0.6452,-0.3831,0.3834,0.005,0.019,-0.059000000000000004
1670355422.559982,-9.268,-0.032,4.764,-0.6463,-0.38270000000000004,0.3836,0.005,0.016,-0.04
1670355422.599982,-9.259,-0.138,4.712,-0.649,-0.3849,0.3733,0.014,0.028,-0.045
1670355422.639982,-9.249,-0.125,4.74,-0.6615,-0.3885,0.37970000000000004,0.02,0.035,-0.054
1670355422.679982,-9.249,-0.116,4.7540000000000004,-0.6615,-0.3885,0.3668,0.012,0.029,-0.044
1670355422.719982,-9.218,-0.116,4.7540000000000004,-0.6494,-0.38470000000000004,0.3668,0.002,0.021,-0.041
1670355422.7599819,-9.244,-0.082,4.726,-0.6483,-0.3856,0.40740000000000004,0.012,0.011,-0.052000000000000005
1670355422.799982,-9.289,-0.06,4.766,-0.6469,-0.386,0.38230000000000003,0.016,0.005,-0.061
1670355422.839982,-9.247,-0.132,4.752,-0.647,-0.38730000000000003,0.3927,0.009000000000000001,0.01,-0.054
1670355422.879982,-9.247,-0.105,4.748,-0.6504,-0.3846,0.385,-0.003,0.013000000000000001,-0.047
1670355422.919982,-9.226,-0.096,4.719,-0.6477,-0.38470000000000004,0.38430000000000003,-0.002,0.017,-0.046
1670355422.959982,-9.24,-0.08600000000000001,4.743,-0.6476000000000001,-0.3846,0.3861,0.009000000000000001,0.021,-0.054
1670355422.9999819,-9.26,-0.108,4.742,-0.6455000000000001,-0.38470000000000004,0.3841,-0.008,0.037,-0.038
1670355423.039982,-9.213000000000001,-0.129,4.7620000000000005,-0.6462,-0.3861,0.3844,0.0,0.023,-0.046
1670355423.079982,-9.225,-0.068,4.76,-0.6438,-0.3849,0.3819,0.019,0.005,-0.058
1670355423.119982,-9.249,-0.07,4.757,-0.6474000000000001,-0.38630000000000003,0.3835,0.031,0.012,-0.062
1670355423.159982,-9.253,-0.113,4.749,-0.6481,-0.3856,0.383,0.021,0.013000000000000001,-0.043000000000000003
1670355423.199982,-9.229000000000001,-0.113,4.7540000000000004,-0.6445000000000001,-0.38670000000000004,0.38530000000000003,0.003,0.021,-0.05
1670355423.239982,-9.254,-0.126,4.7620000000000005,-0.6496000000000001,-0.388,0.387,-0.002,0.015,-0.049
1670355423.279982,-9.267,-0.099,4.777,-0.6447,-0.38620000000000004,0.3845,0.0,0.013000000000000001,-0.039
1670355423.319982,-9.287,-0.009000000000000001,4.7700000000000005,-0.6469,-0.3844,0.3826,0.01,0.018000000000000002,-0.062
1670355423.359982,-9.231,-0.109,4.697,-0.6489,-0.38520000000000004,0.387,0.004,0.017,-0.061
1670355423.399982,-9.218,-0.132,4.698,-0.6467,-0.38480000000000003,0.3844,-0.006,0.014,-0.045
1670355423.439981,-9.259,-0.076,4.753,-0.6472,-0.385,0.38280000000000003,-0.012,0.01,-0.048
1670355423.479981,-9.25,-0.076,4.775,-0.6454000000000001,-0.38570000000000004,0.38520000000000004,0.0,0.009000000000000001,-0.061
1670355423.519981,-9.26,-0.11,4.776,-0.6465000000000001,-0.38430000000000003,0.38720000000000004,0.003,0.006,-0.062
1670355423.5599809,-9.247,-0.177,4.772,-0.6476000000000001,-0.38430000000000003,0.38570000000000004,-0.014,0.014,-0.052000000000000005
1670355423.599981,-9.269,-0.03,4.772,-0.6461,-0.3855,0.38570000000000004,-0.003,0.025,-0.052000000000000005
1670355423.639981,-9.255,-0.11800000000000001,4.721,-0.6445000000000001,-0.3859,0.3831,0.011,0.031,-0.056
1670355423.679981,-9.23,-0.123,4.744,-0.647,-0.3819,0.384,0.012,0.033,-0.054
1670355423.719981,-9.212,-0.11800000000000001,4.749,-0.6624,-0.38820000000000005,0.3891,-0.001,0.025,-0.038
1670355423.759981,-9.218,-0.065,4.732,-0.6441,-0.38380000000000003,0.3846,0.009000000000000001,0.016,-0.046
1670355423.7999809,-9.249,-0.074,4.7330000000000005,-0.6487,-0.384,0.3855,0.015,0.014,-0.056
1670355423.839981,-9.242,-0.146,4.72,-0.6471,-0.3841,0.389,0.01,0.009000000000000001,-0.055
1670355423.879981,-9.244,-0.12,4.736,-0.645,-0.3845,0.38680000000000003,-0.005,0.014,-0.045
1670355423.919981,-9.255,-0.114,4.755,-0.6464000000000001,-0.38470000000000004,0.38770000000000004,-0.013000000000000001,0.021,-0.047
1670355423.959981,-9.258000000000001,-0.085,4.743,-0.646,-0.384,0.3856,0.0,0.023,-0.053
1670355423.999981,-9.235,-0.124,4.7540000000000004,-0.648,-0.3854,0.3851,0.001,0.018000000000000002,-0.056
1670355424.039981,-9.236,-0.122,4.763,-0.6469,-0.3851,0.3854,-0.005,0.012,-0.045
1670355424.079981,-9.244,-0.085,4.803,-0.6468,-0.3865,0.3825,-0.002,0.016,-0.047
1670355424.119981,-9.247,-0.095,4.749,-0.6479,-0.3841,0.3849,0.008,0.019,-0.049
1670355424.159981,-9.229000000000001,-0.132,4.7780000000000005,-0.6516000000000001,-0.38680000000000003,0.385,0.014,0.017,-0.054
1670355424.199981,-9.244,-0.133,4.745,-0.6496000000000001,-0.3855,0.3881,-0.001,0.027,-0.053
1670355424.239981,-9.235,-0.122,4.751,-0.6477,-0.3834,0.3856,-0.009000000000000001,0.018000000000000002,-0.052000000000000005
1670355424.279981,-9.233,-0.048,4.78,-0.647,-0.3844,0.3849,0.008,0.014,-0.043000000000000003
1670355424.319981,-9.254,-0.184,4.695,-0.6454000000000001,-0.38480000000000003,0.3874,0.014,0.022,-0.058
1670355424.359981,-9.19,-0.122,4.724,-0.6482,-0.38420000000000004,0.3825,0.002,0.017,-0.057
1670355424.399981,-9.248,-0.14200000000000002,4.728,-0.6471,-0.3834,0.386,-0.003,0.01,-0.042
1670355424.439981,-9.25,-0.10400000000000001,4.803,-0.6469,-0.3839,0.3851,-0.006,0.006,-0.045
1670355424.399981,-9.254,-0.098,4.798,-0.6473,-0.3855,0.38380000000000003,0.014,0.001,-0.058
1670355424.439981,-9.183,-0.152,4.792,-0.6487,-0.383,0.387,0.014,0.007,-0.061
1670355424.47998,-9.165000000000001,-0.101,4.793,-0.6466000000000001,-0.38530000000000003,0.3851,0.006,0.015,-0.053
1670355424.51998,-9.249,-0.15,4.771,-0.6477,-0.38570000000000004,0.3869,0.01,0.024,-0.045
1670355424.55998,-9.247,-0.098,4.798,-0.6465000000000001,-0.3866,0.38730000000000003,0.018000000000000002,0.03,-0.055
1670355424.5999799,-9.212,-0.10200000000000001,4.798,-0.6458,-0.3846,0.3846,0.008,0.026000000000000002,-0.046
1670355424.63998,-9.206,-0.10200000000000001,4.774,-0.6491,-0.3851,0.3841,0.001,0.022,-0.035
1670355424.67998,-9.246,-0.065,4.7620000000000005,-0.6477,-0.3836,0.38530000000000003,0.014,0.013000000000000001,-0.056
1670355424.71998,-9.252,-0.131,4.773,-0.6495000000000001,-0.3854,0.3866,0.013000000000000001,0.01,-0.062
1670355424.75998,-9.227,-0.121,4.761,-0.646,-0.38470000000000004,0.385,0.0,0.012,-0.059000000000000004
1670355424.79998,-9.221,-0.128,4.764,-0.6518,-0.3859,0.3856,-0.01,0.012,-0.048
1670355424.83998,-9.221,-0.128,4.784,-0.6518,-0.3859,0.3987,-0.01,0.021,-0.05
1670355424.87998,-9.24,-0.113,4.784,-0.649,-0.38670000000000004,0.3987,-0.001,0.022,-0.056
1670355424.91998,-9.215,-0.11900000000000001,4.768,-0.6467,-0.38520000000000004,0.38070000000000004,0.003,0.02,-0.056
1670355424.95998,-9.232,-0.11800000000000001,4.761,-0.6471,-0.3854,0.37970000000000004,0.006,0.014,-0.051000000000000004
1670355424.99998,-9.242,-0.146,4.7620000000000005,-0.6461,-0.3831,0.38630000000000003,0.001,0.018000000000000002,-0.044
1670355425.03998,-9.199,-0.146,4.841,-0.6462,-0.38470000000000004,0.3881,0.01,0.015,-0.035
1670355425.07998,-9.191,-0.112,4.795,-0.6465000000000001,-0.3841,0.38670000000000004,0.011,0.007,-0.043000000000000003
1670355425.11998,-9.185,-0.088,4.796,-0.6484,-0.38370000000000004,0.38830000000000003,0.013000000000000001,0.004,-0.042
1670355425.15998,-9.244,-0.061,4.783,-0.6465000000000001,-0.3836,0.3855,0.029,0.018000000000000002,-0.044
1670355425.19998,-9.239,-0.113,4.71,-0.6456000000000001,-0.38420000000000004,0.38620000000000004,0.014,0.027,-0.058
1670355425.23998,-9.193,-0.092,4.78,-0.6474000000000001,-0.38470000000000004,0.3859,0.0,0.022,-0.056
1670355425.27998,-9.191,-0.114,4.751,-0.6461,-0.3841,0.389,-0.012,0.014,-0.041
1670355425.31998,-9.238,-0.079,4.812,-0.6478,-0.38330000000000003,0.38580000000000003,-0.005,0.012,-0.058
1670355425.35998,-9.226,-0.07,4.828,-0.6467,-0.3841,0.38420000000000004,0.005,0.006,-0.069
1670355425.39998,-9.181000000000001,-0.184,4.809,-0.6463,-0.38430000000000003,0.3834,-0.003,0.01,-0.051000000000000004
1670355425.43998,-9.148,-0.08,4.815,-0.6491,-0.3825,0.38770000000000004,-0.001,0.015,-0.046
1670355425.47998,-9.239,-0.159,4.815,-0.6485000000000001,-0.38670000000000004,0.3889,0.015,0.022,-0.052000000000000005
1670355425.519979,-9.242,-0.112,4.803,-0.6474000000000001,-0.38370000000000004,0.38680000000000003,0.014,0.031,-0.048
1670355425.559979,-9.203,-0.135,4.7620000000000005,-0.6482,-0.38730000000000003,0.3859,0.004,0.027,-0.037
1670355425.599979,-9.205,-0.096,4.78,-0.6466000000000001,-0.3825,0.3855,0.003,0.024,-0.048
1670355425.639979,-9.227,-0.068,4.8,-0.6601,-0.3876,0.38680000000000003,0.019,0.017,-0.054
1670355425.679979,-9.215,-0.099,4.772,-0.6475000000000001,-0.38520000000000004,0.3871,0.017,0.017,-0.056
1670355425.719979,-9.234,-0.093,4.767,-0.6492,-0.3839,0.3869,0.006,0.019,-0.049
1670355425.759979,-9.215,-0.098,4.783,-0.6471,-0.38720000000000004,0.3891,0.0,0.02,-0.049
1670355425.799979,-9.211,-0.079,4.768,-0.6537000000000001,-0.3885,0.38720000000000004,0.004,0.027,-0.057
1670355425.839979,-9.273,-0.096,4.7860000000000005,-0.6473,-0.38620000000000004,0.38670000000000004,0.003,0.027,-0.048
1670355425.879979,-9.206,-0.096,4.767,-0.6482,-0.3839,0.3859,0.0,0.02,-0.05
1670355425.919979,-9.193,-0.084,4.795,-0.6483,-0.3821,0.38620000000000004,0.0,0.012,-0.049
1670355425.959979,-9.178,-0.099,4.782,-0.6461,-0.3871,0.3885,0.0,0.004,-0.048
1670355425.999979,-9.247,-0.128,4.756,-0.6477,-0.3861,0.38420000000000004,0.007,0.009000000000000001,-0.045
1670355426.039979,-9.295,-0.052000000000000005,4.783,-0.648,-0.38320000000000004,0.3875,0.014,0.022,-0.046
1670355426.079979,-9.187,-0.07200000000000001,4.746,-0.6477,-0.384,0.3844,0.01,0.018000000000000002,-0.046
1670355426.119979,-9.200000000000001,-0.107,4.7170000000000005,-0.6486000000000001,-0.3861,0.38630000000000003,0.007,0.019,-0.053
1670355426.159979,-9.215,-0.091,4.755,-0.6475000000000001,-0.38480000000000003,0.385,0.0,0.019,-0.051000000000000004
1670355426.199979,-9.245000000000001,-0.075,4.79,-0.6504,-0.38370000000000004,0.3844,-0.001,0.016,-0.053
1670355426.239979,-9.203,-0.1,4.8260000000000005,-0.6478,-0.38680000000000003,0.3849,0.003,0.018000000000000002,-0.056
1670355426.279979,-9.226,-0.148,4.783,-0.6461,-0.3841,0.386,-0.008,0.019,-0.053
1670355426.319979,-9.247,-0.08,4.8,-0.6492,-0.38320000000000004,0.38720000000000004,-0.001,0.019,-0.046
1670355426.359979,-9.25,-0.073,4.793,-0.6476000000000001,-0.38520000000000004,0.38470000000000004,0.0,0.023,-0.046
1670355426.399979,-9.218,-0.093,4.795,-0.6465000000000001,-0.38580000000000003,0.38730000000000003,0.014,0.032,-0.052000000000000005
1670355426.439979,-9.200000000000001,-0.093,4.761,-0.6483,-0.38620000000000004,0.3864,0.005,0.027,-0.041
1670355426.479979,-9.236,-0.049,4.791,-0.6449,-0.38520000000000004,0.38580000000000003,0.002,0.02,-0.043000000000000003
1670355426.519979,-9.219,-0.062,4.78,-0.6484,-0.3834,0.38680000000000003,0.007,0.009000000000000001,-0.058
1670355426.559978,-9.208,-0.12,4.827,-0.6474000000000001,-0.38630000000000003,0.3846,0.003,0.013000000000000001,-0.054
1670355426.599978,-9.201,-0.107,4.812,-0.6465000000000001,-0.386,0.38630000000000003,-0.011,0.021,-0.056
1670355426.639978,-9.223,-0.096,4.803,-0.6479,-0.3836,0.386,-0.011,0.026000000000000002,-0.051000000000000004
1670355426.679978,-9.223,-0.073,4.789,-0.648,-0.38170000000000004,0.38330000000000003,0.002,0.016,-0.058
1670355426.719978,-9.197000000000001,-0.107,4.806,-0.6467,-0.38270000000000004,0.38480000000000003,0.004,0.023,-0.058
1670355426.759978,-9.208,-0.095,4.824,-0.6498,-0.3844,0.388,0.004,0.02,-0.053
1670355426.799978,-9.208,-0.105,4.835,-0.6476000000000001,-0.3859,0.38820000000000005,0.0,0.023,-0.056
1670355426.839978,-9.153,-0.113,4.791,-0.6467,-0.38580000000000003,0.38930000000000003,0.003,0.016,-0.051000000000000004
1670355426.879978,-9.228,-0.127,4.758,-0.6472,-0.38670000000000004,0.3856,0.001,0.013000000000000001,-0.045
1670355426.919978,-9.317,-0.046,4.804,-0.6487,-0.38320000000000004,0.38670000000000004,0.016,0.012,-0.043000000000000003
1670355426.959978,-9.196,-0.09,4.782,-0.6499,-0.38470000000000004,0.3861,0.015,0.021,-0.059000000000000004
1670355426.999978,-9.185,-0.154,4.768,-0.6491,-0.38680000000000003,0.3966,0.015,0.02,-0.057
1670355427.039978,-9.185,-0.089,4.7940000000000005,-0.6491,-0.3846,0.4334,-0.006,0.018000000000000002,-0.045
1670355427.079978,-9.191,-0.089,4.7940000000000005,-0.6491,-0.3846,0.4334,0.0,0.011,-0.047
1670355427.119978,-9.22,-0.079,4.835,-0.6483,-0.3831,0.3855,0.007,0.017,-0.061
1670355427.159978,-9.209,-0.124,4.835,-0.6491,-0.38480000000000003,0.3794,-0.002,0.012,-0.063
1670355427.199978,-9.217,-0.168,4.771,-0.6491,-0.38580000000000003,0.3851,-0.003,0.006,-0.05
1670355427.239978,-9.232,-0.059000000000000004,4.8180000000000005,-0.6457,-0.3856,0.3795,0.005,0.019,-0.048
1670355427.279978,-9.244,-0.07200000000000001,4.7700000000000005,-0.645,-0.38330000000000003,0.38570000000000004,0.013000000000000001,0.028,-0.055
1670355427.319978,-9.202,-0.12,4.756,-0.6451,-0.38530000000000003,0.38480000000000003,0.007,0.025,-0.037
1670355427.359978,-9.203,-0.111,4.76,-0.6505000000000001,-0.38170000000000004,0.3849,-0.001,0.02,-0.04
1670355427.399978,-9.194,-0.056,4.801,-0.6463,-0.38480000000000003,0.38470000000000004,0.012,0.009000000000000001,-0.06
1670355427.439978,-9.209,-0.079,4.756,-0.6466000000000001,-0.38470000000000004,0.3869,0.02,0.01,-0.057
1670355427.4799778,-9.234,-0.136,4.776,-0.6512,-0.3864,0.388,0.004,0.009000000000000001,-0.054
1670355427.519978,-9.224,-0.116,4.767,-0.6483,-0.3845,0.3866,-0.009000000000000001,0.02,-0.045
1670355427.559978,-9.223,-0.097,4.817,-0.6581,-0.3869,0.38770000000000004,-0.006,0.017,-0.051000000000000004
1670355427.599977,-9.224,-0.085,4.835,-0.6478,-0.38520000000000004,0.38770000000000004,0.001,0.025,-0.056
1670355427.639977,-9.187,-0.113,4.819,-0.6494,-0.385,0.3899,0.008,0.021,-0.052000000000000005
1670355427.679977,-9.218,-0.138,4.8,-0.6474000000000001,-0.3841,0.3885,0.007,0.021,-0.052000000000000005
1670355427.719977,-9.189,-0.113,4.8020000000000005,-0.6483,-0.38380000000000003,0.387,0.007,0.014,-0.046
1670355427.759977,-9.196,-0.122,4.799,-0.6465000000000001,-0.38430000000000003,0.3845,0.01,0.022,-0.049
1670355427.799977,-9.227,-0.117,4.764,-0.648,-0.3841,0.38620000000000004,0.02,0.014,-0.052000000000000005
1670355427.839977,-9.203,-0.105,4.753,-0.6487,-0.3855,0.3839,0.006,0.017,-0.044
1670355427.879977,-9.129,-0.098,4.812,-0.649,-0.38720000000000004,0.389,0.0,0.016,-0.05
1670355427.919977,-9.224,-0.127,4.809,-0.6476000000000001,-0.383,0.3881,0.007,0.02,-0.042
1670355427.959977,-9.3,-0.082,4.813,-0.6466000000000001,-0.3849,0.3856,0.006,0.03,-0.053
1670355427.999977,-9.15,-0.076,4.8,-0.6452,-0.3866,0.38920000000000005,0.001,0.026000000000000002,-0.045
1670355428.039977,-9.176,-0.125,4.779,-0.6471,-0.3835,0.3881,0.005,0.017,-0.047
1670355428.079977,-9.233,-0.08,4.774,-0.6486000000000001,-0.3855,0.3861,0.0,0.013000000000000001,-0.051000000000000004
1670355428.119977,-9.212,-0.073,4.798,-0.6501,-0.384,0.38570000000000004,0.01,0.011,-0.058
1670355428.159977,-9.192,-0.11,4.812,-0.6474000000000001,-0.3841,0.3856,0.018000000000000002,0.0,-0.057
1670355428.199977,-9.215,-0.136,4.7860000000000005,-0.6485000000000001,-0.3855,0.38620000000000004,0.005,0.001,-0.046
1670355428.239977,-9.247,-0.07200000000000001,4.79,-0.648,-0.3864,0.38720000000000004,0.013000000000000001,0.016,-0.05
1670355428.2799768,-9.244,-0.084,4.835,-0.6485000000000001,-0.3819,0.386,0.009000000000000001,0.017,-0.053
1670355428.319977,-9.178,-0.08700000000000001,4.806,-0.6469,-0.3855,0.3881,0.012,0.011,-0.044
1670355428.359977,-9.167,-0.089,4.809,-0.6466000000000001,-0.38670000000000004,0.3894,0.01,0.004,-0.046
1670355428.399977,-9.192,-0.06,4.839,-0.6477,-0.38530000000000003,0.3886,0.012,0.004,-0.058
1670355428.439977,-9.193,-0.08600000000000001,4.861,-0.6446000000000001,-0.3841,0.3881,0.014,0.003,-0.061
1670355428.479977,-9.204,-0.132,4.876,-0.6483,-0.38520000000000004,0.389,0.002,0.01,-0.057
1670355428.5199769,-9.199,-0.078,4.83,-0.6516000000000001,-0.384,0.39030000000000004,0.0,0.02,-0.049
1670355428.559977,-9.187,-0.088,4.875,-0.6501,-0.387,0.3881,0.003,0.021,-0.051000000000000004
1670355428.599977,-9.217,-0.098,4.8260000000000005,-0.6486000000000001,-0.38580000000000003,0.3884,0.001,0.025,-0.052000000000000005
1670355428.639977,-9.178,-0.1,4.812,-0.6473,-0.385,0.3855,0.0,0.022,-0.051000000000000004
1670355428.679977,-9.187,-0.095,4.782,-0.6482,-0.38470000000000004,0.38970000000000005,0.005,0.014,-0.052000000000000005
1670355428.719976,-9.189,-0.083,4.816,-0.6473,-0.38470000000000004,0.3876,0.008,0.014,-0.053
1670355428.759976,-9.196,-0.098,4.822,-0.648,-0.3851,0.38870000000000005,0.012,0.014,-0.054
1670355428.799976,-9.188,-0.131,4.838,-0.6479,-0.38420000000000004,0.38480000000000003,0.009000000000000001,0.013000000000000001,-0.053
1670355428.839976,-9.239,-0.131,4.878,-0.6452,-0.38270000000000004,0.393,-0.001,0.019,-0.046
1670355428.879976,-9.234,-0.008,4.849,-0.6472,-0.3895,0.3929,0.003,0.022,-0.041
1670355428.919976,-9.147,-0.095,4.803,-0.648,-0.38320000000000004,0.3891,0.008,0.028,-0.051000000000000004
1670355428.959976,-9.14,-0.105,4.816,-0.6483,-0.38680000000000003,0.38830000000000003,0.0,0.026000000000000002,-0.056
1670355428.999976,-9.203,-0.08700000000000001,4.789,-0.6475000000000001,-0.38570000000000004,0.3895,-0.008,0.018000000000000002,-0.054
1670355429.039976,-9.205,-0.055,4.856,-0.6477,-0.38620000000000004,0.3891,0.001,0.009000000000000001,-0.051000000000000004
1670355429.0799758,-9.192,-0.1,4.828,-0.6461,-0.385,0.38720000000000004,0.007,0.006,-0.057
1670355429.119976,-9.205,-0.11900000000000001,4.813,-0.651,-0.38380000000000003,0.38920000000000005,0.001,0.009000000000000001,-0.06
1670355429.159976,-9.238,-0.064,4.807,-0.6455000000000001,-0.38530000000000003,0.3909,0.006,0.012,-0.047
1670355429.199976,-9.212,-0.07,4.866,-0.6471,-0.3829,0.3845,0.018000000000000002,0.027,-0.055
1670355429.239976,-9.188,-0.101,4.839,-0.6518,-0.38530000000000003,0.3966,0.006,0.037,-0.056
1670355429.279976,-9.188,-0.101,4.876,-0.6518,-0.38530000000000003,0.387,0.0,0.03,-0.044
1670355429.3199759,-9.162,-0.099,4.876,-0.6505000000000001,-0.38520000000000004,0.387,0.002,0.02,-0.048
1670355429.359976,-9.217,-0.053,4.837,-0.6472,-0.3856,0.37070000000000003,0.009000000000000001,0.016,-0.06
1670355429.399976,-9.215,-0.10200000000000001,4.856,-0.6488,-0.3859,0.40040000000000003,0.003,0.015,-0.053
1670355429.439976,-9.196,-0.126,4.857,-0.654,-0.3874,0.4077,-0.009000000000000001,0.016,-0.048
1670355429.479976,-9.187,-0.089,4.8340000000000005,-0.6499,-0.38420000000000004,0.38670000000000004,-0.005,0.019,-0.046
1670355429.519976,-9.212,-0.096,4.857,-0.6489,-0.3871,0.38770000000000004,0.008,0.03,-0.057
1670355429.5599759,-9.196,-0.096,4.843,-0.6539,-0.3864,0.39,0.007,0.023,-0.05
1670355429.599976,-9.202,-0.116,4.817,-0.6471,-0.38730000000000003,0.3871,-0.004,0.026000000000000002,-0.049
1670355429.639976,-9.185,-0.083,4.825,-0.6501,-0.38480000000000003,0.3854,0.004,0.018000000000000002,-0.052000000000000005
1670355429.679976,-9.189,-0.092,4.8180000000000005,-0.6471,-0.3855,0.38780000000000003,0.01,0.015,-0.047
1670355429.719976,-9.198,-0.092,4.824,-0.663,-0.3915,0.3977,0.011,0.017,-0.049
1670355429.759975,-9.202,-0.082,4.835,-0.6465000000000001,-0.38520000000000004,0.3859,0.011,0.018000000000000002,-0.048
1670355429.799975,-9.165000000000001,-0.121,4.819,-0.6525000000000001,-0.38470000000000004,0.3864,0.009000000000000001,0.011,-0.045
1670355429.839975,-9.229000000000001,-0.11800000000000001,4.847,-0.6487,-0.3855,0.3875,0.016,0.015,-0.032
1670355429.879975,-9.276,0.008,4.821,-0.6515000000000001,-0.38920000000000005,0.38830000000000003,0.019,0.026000000000000002,-0.053
1670355429.919975,-9.191,-0.082,4.812,-0.6523,-0.3856,0.38770000000000004,0.013000000000000001,0.02,-0.054
1670355429.959975,-9.203,-0.10300000000000001,4.836,-0.6494,-0.3869,0.3874,0.002,0.016,-0.045
1670355429.999975,-9.186,-0.08,4.837,-0.6494,-0.3866,0.38770000000000004,0.001,0.012,-0.045
1670355430.039975,-9.225,-0.052000000000000005,4.873,-0.6476000000000001,-0.388,0.3896,0.009000000000000001,0.009000000000000001,-0.056
1670355430.079975,-9.233,-0.083,4.862,-0.6497,-0.3844,0.3874,0.003,0.011,-0.057
1670355430.1199749,-9.203,-0.128,4.8340000000000005,-0.6481,-0.3859,0.3891,-0.004,0.018000000000000002,-0.051000000000000004
1670355430.159975,-9.193,0.001,4.87,-0.6475000000000001,-0.3875,0.3881,0.004,0.024,-0.048
1670355430.199975,-9.21,-0.07100000000000001,4.821,-0.6495000000000001,-0.3859,0.3874,0.011,0.027,-0.054
1670355430.239975,-9.196,-0.094,4.803,-0.6491,-0.38630000000000003,0.38670000000000004,0.002,0.029,-0.049
1670355430.279975,-9.184000000000001,-0.077,4.812,-0.6466000000000001,-0.38670000000000004,0.38880000000000003,-0.008,0.022,-0.043000000000000003
1670355430.319975,-9.172,-0.038,4.829,-0.6482,-0.3865,0.3875,0.004,0.012,-0.052000000000000005
1670355430.3599749,-9.214,-0.08,4.845,-0.6484,-0.38670000000000004,0.38730000000000003,0.013000000000000001,0.01,-0.063
1670355430.399975,-9.194,-0.122,4.8020000000000005,-0.6517000000000001,-0.38630000000000003,0.39,0.002,0.013000000000000001,-0.058
1670355430.439975,-9.202,-0.112,4.84,-0.6496000000000001,-0.38520000000000004,0.38630000000000003,-0.014,0.011,-0.047
1670355430.479975,-9.208,-0.08700000000000001,4.852,-0.6477,-0.38480000000000003,0.38980000000000004,-0.001,0.019,-0.048
1670355430.519975,-9.209,-0.089,4.853,-0.6482,-0.38380000000000003,0.3881,0.001,0.023,-0.055
1670355430.559975,-9.212,-0.10200000000000001,4.816,-0.6486000000000001,-0.38480000000000003,0.38570000000000004,0.006,0.026000000000000002,-0.055
1670355430.5999749,-9.196,-0.099,4.843,-0.6505000000000001,-0.3831,0.3864,0.004,0.019,-0.05
1670355430.639975,-9.163,-0.08600000000000001,4.843,-0.6481,-0.3866,0.3869,0.006,0.017,-0.049
1670355430.679975,-9.179,-0.082,4.833,-0.6499,-0.3834,0.38780000000000003,0.009000000000000001,0.018000000000000002,-0.052000000000000005
1670355430.719975,-9.199,-0.091,4.7860000000000005,-0.6514,-0.3845,0.38520000000000004,0.011,0.015,-0.047
1670355430.759975,-9.224,-0.064,4.806,-0.6482,-0.384,0.3895,0.012,0.024,-0.048
1670355430.799974,-9.211,-0.094,4.86,-0.6489,-0.3849,0.3861,0.006,0.023,-0.051000000000000004
1670355430.839974,-9.214,-0.128,4.831,-0.6496000000000001,-0.3855,0.3875,0.002,0.025,-0.05
1670355430.879974,-9.213000000000001,-0.085,4.833,-0.6492,-0.3845,0.3861,-0.003,0.016,-0.048
1670355430.9199739,-9.229000000000001,0.019,4.823,-0.6491,-0.3856,0.38920000000000005,0.003,0.007,-0.036000000000000004
1670355430.959974,-9.182,-0.152,4.7620000000000005,-0.6532,-0.3871,0.38530000000000003,0.01,0.017,-0.057
1670355430.999974,-9.161,-0.093,4.756,-0.6487,-0.3839,0.38670000000000004,0.01,0.023,-0.063
1670355431.039974,-9.206,-0.095,4.833,-0.6489,-0.38580000000000003,0.3874,-0.002,0.016,-0.043000000000000003
1670355431.079974,-9.232,-0.065,4.837,-0.6512,-0.3844,0.388,-0.002,0.021,-0.052000000000000005
1670355431.119974,-9.201,-0.116,4.851,-0.6472,-0.38680000000000003,0.38670000000000004,0.008,0.012,-0.056
1670355431.1599739,-9.15,-0.14100000000000001,4.855,-0.6491,-0.3851,0.38720000000000004,0.002,0.008,-0.06
1670355431.199974,-9.151,-0.064,4.819,-0.6516000000000001,-0.38580000000000003,0.3902,-0.006,0.016,-0.048
1670355431.239974,-9.22,-0.14100000000000001,4.825,-0.6524,-0.3866,0.3885,0.005,0.024,-0.049
1670355431.279974,-9.197000000000001,-0.08600000000000001,4.832,-0.6487,-0.381,0.3861,0.016,0.029,-0.056
1670355431.319974,-9.194,-0.08700000000000001,4.792,-0.6488,-0.3831,0.3844,0.013000000000000001,0.026000000000000002,-0.05
1670355431.359974,-9.194,-0.048,4.791,-0.6484,-0.3866,0.3844,0.0,0.016,-0.044
1670355431.3999739,-9.216000000000001,-0.05,4.782,-0.6482,-0.38630000000000003,0.3728,0.012,0.014,-0.049
1670355431.439974,-9.193,-0.11,4.825,-0.6504,-0.3854,0.3919,0.012,0.017,-0.065
1670355431.479974,-9.193,-0.093,4.804,-0.6504,-0.38280000000000003,0.3748,0.004,0.011,-0.053
1670355431.519974,-9.199,-0.093,4.804,-0.6504,-0.38280000000000003,0.3748,-0.008,0.019,-0.041
1670355431.559974,-9.213000000000001,-0.09,4.792,-0.6526000000000001,-0.3826,0.387,0.004,0.031,-0.045
1670355431.599974,-9.202,-0.015,4.812,-0.6509,-0.3861,0.37010000000000004,0.012,0.02,-0.062
1670355431.6399739,-9.206,-0.126,4.832,-0.6531,-0.38780000000000003,0.3806,0.006,0.009000000000000001,-0.049
1670355431.679974,-9.23,-0.129,4.776,-0.6474000000000001,-0.3831,0.3769,-0.009000000000000001,0.004,-0.037
1670355431.719974,-9.199,-0.025,4.822,-0.6613,-0.3881,0.4007,0.004,0.005,-0.045
1670355431.759974,-9.198,-0.08,4.8100000000000005,-0.6496000000000001,-0.3871,0.38630000000000003,0.019,0.012,-0.061
1670355431.799974,-9.188,-0.096,4.807,-0.6535000000000001,-0.38570000000000004,0.39540000000000003,0.011,0.012,-0.052000000000000005
1670355431.839973,-9.184000000000001,-0.121,4.809,-0.646,-0.3866,0.38630000000000003,0.0,0.014,-0.036000000000000004
1670355431.879973,-9.195,-0.056,4.847,-0.6598,-0.39,0.4011,0.0,0.017,-0.045
1670355431.919973,-9.186,-0.083,4.836,-0.649,-0.38480000000000003,0.38770000000000004,0.005,0.019,-0.054
1670355431.9599729,-9.189,-0.073,4.821,-0.6548,-0.3881,0.3901,0.008,0.021,-0.047
1670355431.999973,-9.185,-0.111,4.849,-0.6483,-0.387,0.38830000000000003,-0.001,0.014,-0.048
1670355432.039973,-9.158,-0.111,4.845,-0.6476000000000001,-0.38630000000000003,0.38580000000000003,-0.003,0.014,-0.052000000000000005
1670355432.079973,-9.242,-0.091,4.853,-0.6495000000000001,-0.384,0.3889,0.0,0.014,-0.04
1670355432.119973,-9.284,-0.042,4.845,-0.6502,-0.3856,0.3866,0.009000000000000001,0.032,-0.052000000000000005
1670355432.159973,-9.163,-0.069,4.777,-0.6481,-0.38720000000000004,0.3905,0.013000000000000001,0.028,-0.045
1670355432.1999729,-9.17,-0.10400000000000001,4.783,-0.6495000000000001,-0.3869,0.389,0.003,0.018000000000000002,-0.042
1670355432.239973,-9.229000000000001,-0.051000000000000004,4.819,-0.6465000000000001,-0.38770000000000004,0.3875,0.007,0.015,-0.051000000000000004
1670355432.279973,-9.200000000000001,-0.06,4.89,-0.6488,-0.38470000000000004,0.38820000000000005,0.006,0.003,-0.057
1670355432.319973,-9.187,-0.10200000000000001,4.847,-0.6482,-0.3864,0.3864,0.004,0.0,-0.059000000000000004
1670355432.359973,-9.232,-0.10300000000000001,4.797,-0.648,-0.3831,0.38630000000000003,-0.004,0.012,-0.048
1670355432.399973,-9.247,-0.019,4.881,-0.6477,-0.3861,0.3859,0.011,0.012,-0.048
1670355432.4399729,-9.226,-0.08700000000000001,4.8260000000000005,-0.6494,-0.38630000000000003,0.3875,0.011,0.032,-0.052000000000000005
1670355432.479973,-9.182,-0.098,4.843,-0.6488,-0.38530000000000003,0.38470000000000004,0.005,0.027,-0.047
1670355432.519973,-9.147,-0.078,4.824,-0.6463,-0.3844,0.3859,0.001,0.016,-0.036000000000000004
1670355432.559973,-9.172,-0.025,4.852,-0.6463,-0.38670000000000004,0.3894,0.008,0.01,-0.042
1670355432.599973,-9.184000000000001,-0.052000000000000005,4.859,-0.6491,-0.3866,0.3884,0.016,0.014,-0.065
1670355432.639973,-9.193,-0.113,4.839,-0.6488,-0.38670000000000004,0.3874,-0.002,0.011,-0.058
1670355432.679973,-9.19,-0.08,4.848,-0.6444000000000001,-0.38630000000000003,0.3905,-0.004,0.015,-0.048
1670355432.719973,-9.175,-0.079,4.83,-0.6477,-0.38280000000000003,0.3885,-0.007,0.019,-0.05
1670355432.759973,-9.187,-0.077,4.868,-0.6523,-0.38920000000000005,0.3902,0.0,0.026000000000000002,-0.054
1670355432.799973,-9.192,-0.093,4.87,-0.6468,-0.3835,0.3902,0.0,0.025,-0.055
1670355432.839973,-9.165000000000001,-0.085,4.837,-0.648,-0.38530000000000003,0.38770000000000004,-0.001,0.02,-0.05
1670355432.879972,-9.17,-0.058,4.853,-0.6477,-0.3864,0.38630000000000003,0.003,0.013000000000000001,-0.046
1670355432.919972,-9.207,-0.07,4.868,-0.6512,-0.385,0.3864,0.015,0.012,-0.053
1670355432.959972,-9.196,-0.07100000000000001,4.862,-0.6501,-0.3856,0.3902,0.014,0.014,-0.052000000000000005
1670355432.9999719,-9.182,-0.109,4.843,-0.6502,-0.38520000000000004,0.38780000000000003,0.008,0.015,-0.05
1670355433.039972,-9.176,-0.113,4.854,-0.6483,-0.38580000000000003,0.38630000000000003,0.002,0.022,-0.051000000000000004
1670355433.079972,-9.181000000000001,-0.08600000000000001,4.8580000000000005,-0.6517000000000001,-0.3875,0.38870000000000005,0.001,0.018000000000000002,-0.053
1670355433.119972,-9.203,-0.016,4.885,-0.6514,-0.3865,0.3902,0.001,0.01,-0.038
1670355433.159972,-9.162,-0.146,4.779,-0.6496000000000001,-0.38280000000000003,0.38830000000000003,0.008,0.014,-0.057
1670355433.199972,-9.158,-0.075,4.797,-0.6476000000000001,-0.38670000000000004,0.3871,0.001,0.021,-0.06
1670355433.2399719,-9.193,-0.105,4.835,-0.6461,-0.3861,0.3855,-0.01,0.015,-0.048
1670355433.279972,-9.209,-0.084,4.828,-0.6461,-0.3864,0.3899,-0.005,0.012,-0.051000000000000004
1670355433.319972,-9.203,-0.077,4.847,-0.6466000000000001,-0.38530000000000003,0.3891,0.01,0.011,-0.053
1670355433.359972,-9.161,-0.105,4.8340000000000005,-0.6513,-0.388,0.38630000000000003,0.007,0.012,-0.053
1670355433.399972,-9.127,-0.08600000000000001,4.8790000000000004,-0.6476000000000001,-0.38370000000000004,0.388,-0.001,0.013000000000000001,-0.042
1670355433.439972,-9.182,-0.128,4.86,-0.6492,-0.38470000000000004,0.38730000000000003,0.01,0.024,-0.046
1670355433.479972,-9.214,-0.075,4.852,-0.6493,-0.3844,0.3869,0.015,0.023,-0.05
1670355433.519972,-9.164,-0.105,4.855,-0.6524,-0.3861,0.38620000000000004,0.014,0.027,-0.051000000000000004
1670355433.559972,-9.147,-0.043000000000000003,4.841,-0.6485000000000001,-0.3854,0.38780000000000003,-0.002,0.02,-0.038
1670355433.599972,-9.19,-0.038,4.84,-0.6502,-0.38420000000000004,0.3885,0.005,0.017,-0.046
1670355433.639972,-9.188,-0.083,4.855,-0.648,-0.3876,0.3889,0.015,0.014,-0.066
1670355433.679972,-9.197000000000001,-0.095,4.869,-0.6516000000000001,-0.3861,0.3784,0.004,0.012,-0.055
1670355433.719972,-9.197000000000001,-0.068,4.8340000000000005,-0.6516000000000001,-0.38770000000000004,0.37420000000000003,-0.005,0.022,-0.047
1670355433.759972,-9.19,-0.068,4.852,-0.6511,-0.38770000000000004,0.3996,-0.006,0.02,-0.047
1670355433.799972,-9.178,-0.067,4.852,-0.6647000000000001,-0.3895,0.3996,0.004,0.02,-0.054
1670355433.839972,-9.171,-0.091,4.861,-0.649,-0.38620000000000004,0.39440000000000003,0.009000000000000001,0.021,-0.049
1670355433.879972,-9.178,-0.093,4.848,-0.6518,-0.388,0.3975,0.001,0.017,-0.045
1670355433.919971,-9.184000000000001,-0.097,4.843,-0.6518,-0.38470000000000004,0.3925,0.009000000000000001,0.012,-0.046
1670355433.959971,-9.172,-0.089,4.856,-0.6567000000000001,-0.3875,0.3982,0.008,0.019,-0.057
1670355433.999971,-9.195,-0.10200000000000001,4.8580000000000005,-0.6538,-0.3849,0.3869,0.006,0.025,-0.045
1670355434.0399709,-9.186,-0.082,4.861,-0.6504,-0.385,0.3869,0.005,0.023,-0.051000000000000004
1670355434.079971,-9.202,-0.08600000000000001,4.861,-0.6483,-0.3859,0.38820000000000005,0.005,0.026000000000000002,-0.052000000000000005
1670355434.119971,-9.153,-0.10300000000000001,4.849,-0.6505000000000001,-0.38720000000000004,0.3906,-0.002,0.018000000000000002,-0.051000000000000004
1670355434.159971,-9.187,-0.097,4.829,-0.6491,-0.3834,0.3869,0.003,0.016,-0.042
1670355434.199971,-9.25,0.002,4.841,-0.6493,-0.3845,0.3875,0.008,0.021,-0.058
1670355434.239971,-9.183,-0.08600000000000001,4.833,-0.6481,-0.3851,0.3886,0.007,0.016,-0.05
1670355434.279971,-9.179,-0.111,4.84,-0.6499,-0.38580000000000003,0.38820000000000005,0.0,0.019,-0.038
1670355434.319971,-9.17,-0.07100000000000001,4.839,-0.6489,-0.3859,0.38720000000000004,-0.001,0.008,-0.049
1670355434.359971,-9.186,-0.07,4.891,-0.6494,-0.3835,0.38830000000000003,0.004,0.007,-0.056
1670355434.399971,-9.202,-0.10400000000000001,4.849,-0.6496000000000001,-0.3846,0.3871,-0.001,0.009000000000000001,-0.066
1670355434.439971,-9.19,-0.14400000000000002,4.863,-0.6491,-0.38530000000000003,0.3879,-0.004,0.02,-0.051000000000000004
1670355434.479971,-9.177,-0.005,4.839,-0.6474000000000001,-0.3844,0.3876,0.003,0.023,-0.056
1670355434.519971,-9.196,-0.114,4.884,-0.6481,-0.3875,0.3889,0.014,0.026000000000000002,-0.058
1670355434.559971,-9.194,-0.105,4.848,-0.6478,-0.38270000000000004,0.38980000000000004,0.008,0.022,-0.045
1670355434.599971,-9.167,-0.077,4.816,-0.6492,-0.3854,0.38820000000000005,0.002,0.02,-0.037
1670355434.639971,-9.188,-0.062,4.8500000000000005,-0.65,-0.38480000000000003,0.3874,0.016,0.012,-0.053
1670355434.679971,-9.17,-0.062,4.862,-0.648,-0.3854,0.38680000000000003,0.02,0.018000000000000002,-0.063
1670355434.719971,-9.199,-0.122,4.86,-0.649,-0.38430000000000003,0.388,0.009000000000000001,0.019,-0.053
1670355434.759971,-9.185,-0.108,4.821,-0.6502,-0.387,0.389,-0.001,0.017,-0.05
1670355434.799971,-9.196,-0.107,4.821,-0.648,-0.3844,0.3876,0.0,0.023,-0.043000000000000003
1670355434.839971,-9.17,-0.082,4.866,-0.6472,-0.3834,0.389,0.006,0.026000000000000002,-0.052000000000000005
1670355434.879971,-9.168000000000001,-0.078,4.87,-0.6476000000000001,-0.386,0.3891,0.009000000000000001,0.025,-0.053
1670355434.919971,-9.202,-0.10400000000000001,4.864,-0.6495000000000001,-0.3884,0.3927,0.001,0.028,-0.042
1670355434.95997,-9.169,-0.095,4.859,-0.6474000000000001,-0.38630000000000003,0.3931,0.008,0.02,-0.05
1670355434.99997,-9.223,-0.101,4.8340000000000005,-0.6496000000000001,-0.3874,0.3916,0.005,0.022,-0.049
1670355435.03997,-9.200000000000001,-0.068,4.8260000000000005,-0.6482,-0.38470000000000004,0.3874,0.012,0.02,-0.052000000000000005
1670355435.07997,-9.175,-0.079,4.8100000000000005,-0.6466000000000001,-0.3841,0.38770000000000004,0.013000000000000001,0.019,-0.052000000000000005
1670355435.11997,-9.182,-0.116,4.843,-0.6469,-0.38830000000000003,0.3881,0.002,0.017,-0.049
1670355435.15997,-9.218,-0.095,4.851,-0.6469,-0.38620000000000004,0.387,-0.002,0.016,-0.043000000000000003
1670355435.19997,-9.233,-0.029,4.839,-0.6446000000000001,-0.3861,0.38920000000000005,0.004,0.022,-0.053
1670355435.23997,-9.165000000000001,-0.108,4.846,-0.6485000000000001,-0.38470000000000004,0.3874,0.008,0.019,-0.06
1670355435.27997,-9.173,-0.114,4.812,-0.6495000000000001,-0.3859,0.39,-0.001,0.017,-0.052000000000000005
1670355435.31997,-9.221,-0.062,4.855,-0.6461,-0.38630000000000003,0.38870000000000005,-0.003,0.008,-0.046
1670355435.35997,-9.215,-0.076,4.9430000000000005,-0.6483,-0.3856,0.387,0.005,0.028,-0.053
1670355435.39997,-9.206,-0.195,4.8790000000000004,-0.6476000000000001,-0.3834,0.3894,-0.025,0.035,-0.036000000000000004
1670355435.43997,-9.203,-0.08600000000000001,4.788,-0.6485000000000001,-0.385,0.3875,-0.013000000000000001,0.022,-0.036000000000000004
1670355435.47997,-9.213000000000001,0.012,4.869,-0.6473,-0.3859,0.386,0.014,0.018000000000000002,-0.04
1670355435.51997,-9.221,-0.061,4.812,-0.6473,-0.38530000000000003,0.3895,0.053,0.006,-0.058
1670355435.55997,-9.145,-0.114,4.812,-0.6458,-0.3866,0.3856,0.043000000000000003,0.011,-0.063
1670355435.59997,-9.17,-0.038,4.833,-0.6465000000000001,-0.389,0.3902,0.017,0.009000000000000001,-0.036000000000000004
1670355435.63997,-9.151,-0.067,4.849,-0.6488,-0.3866,0.3886,0.006,0.006,-0.047
1670355435.67997,-9.208,-0.017,4.83,-0.6487,-0.3885,0.38920000000000005,0.016,0.003,-0.063
1670355435.71997,-9.166,-0.109,4.846,-0.6459,-0.38780000000000003,0.387,0.003,0.009000000000000001,-0.061
1670355435.75997,-9.224,-0.082,4.847,-0.6485000000000001,-0.3866,0.3886,-0.014,0.018000000000000002,-0.056
1670355435.79997,-9.188,-0.07200000000000001,4.855,-0.6465000000000001,-0.3876,0.3891,-0.015,0.027,-0.057
1670355435.83997,-9.19,-0.069,4.874,-0.662,-0.38970000000000005,0.39330000000000004,-0.012,0.031,-0.056
1670355435.87997,-9.17,-0.091,4.8870000000000005,-0.648,-0.386,0.3909,-0.009000000000000001,0.027,-0.064
1670355435.91997,-9.181000000000001,-0.09,4.862,-0.6501,-0.3859,0.3924,-0.014,0.019,-0.054
1670355435.95997,-9.181000000000001,-0.082,4.821,-0.6501,-0.3844,0.3885,-0.003,0.018000000000000002,-0.054
1670355435.999969,-9.197000000000001,-0.082,4.813,-0.6518,-0.3844,0.3885,0.004,0.016,-0.051000000000000004
1670355436.039969,-9.218,-0.093,4.813,-0.6518,-0.38720000000000004,0.3724,0.008,0.017,-0.057
1670355436.079969,-9.209,-0.129,4.843,-0.6508,-0.38730000000000003,0.3902,0.0,0.021,-0.051000000000000004
1670355436.119969,-9.213000000000001,-0.133,4.813,-0.6468,-0.38630000000000003,0.37920000000000004,-0.002,0.014,-0.052000000000000005
1670355436.159969,-9.169,-0.092,4.867,-0.6511,-0.3849,0.37360000000000004,-0.007,0.017,-0.045
1670355436.199969,-9.198,-0.043000000000000003,4.871,-0.6488,-0.3839,0.3876,0.015,0.016,-0.053
1670355436.239969,-9.197000000000001,-0.17400000000000002,4.813,-0.6477,-0.38570000000000004,0.38670000000000004,0.011,0.014,-0.062
1670355436.279969,-9.163,-0.077,4.822,-0.6481,-0.38630000000000003,0.38680000000000003,0.002,0.015,-0.054
1670355436.319969,-9.169,-0.10400000000000001,4.837,-0.646,-0.3869,0.3911,-0.005,0.009000000000000001,-0.045
1670355436.359969,-9.213000000000001,-0.101,4.865,-0.6458,-0.38430000000000003,0.3889,0.011,0.012,-0.05
1670355436.399969,-9.199,-0.082,4.8580000000000005,-0.6484,-0.3856,0.3895,0.014,0.012,-0.051000000000000004
1670355436.439969,-9.147,-0.123,4.855,-0.6475000000000001,-0.38470000000000004,0.3881,0.008,0.013000000000000001,-0.048
1670355436.479969,-9.119,-0.082,4.839,-0.6457,-0.3856,0.38830000000000003,0.014,0.016,-0.043000000000000003
1670355436.519969,-9.202,-0.14100000000000001,4.8580000000000005,-0.6479,-0.3856,0.3875,0.009000000000000001,0.026000000000000002,-0.053
1670355436.559969,-9.212,-0.074,4.831,-0.6459,-0.38470000000000004,0.3886,0.005,0.029,-0.056
1670355436.599969,-9.177,-0.10400000000000001,4.787,-0.648,-0.3845,0.3907,-0.003,0.022,-0.037
1670355436.639969,-9.179,-0.082,4.837,-0.6482,-0.38420000000000004,0.3861,-0.003,0.016,-0.045
1670355436.679969,-9.196,-0.065,4.824,-0.6519,-0.38480000000000003,0.38780000000000003,0.009000000000000001,0.007,-0.062
1670355436.719969,-9.200000000000001,-0.11900000000000001,4.841,-0.6474000000000001,-0.3839,0.3906,0.008,0.014,-0.06
1670355436.759969,-9.217,-0.121,4.819,-0.6475000000000001,-0.3841,0.3889,0.0,0.01,-0.048
1670355436.799969,-9.194,-0.099,4.853,-0.6487,-0.3844,0.38930000000000003,-0.006,0.018000000000000002,-0.049
1670355436.839969,-9.203,-0.107,4.8180000000000005,-0.6437,-0.3859,0.39080000000000004,0.003,0.021,-0.053
1670355436.879969,-9.199,-0.11800000000000001,4.84,-0.6466000000000001,-0.38580000000000003,0.3889,0.003,0.02,-0.052000000000000005
1670355436.9199688,-9.181000000000001,-0.081,4.839,-0.6496000000000001,-0.38380000000000003,0.3914,0.007,0.022,-0.052000000000000005
1670355436.959969,-9.217,-0.096,4.853,-0.6465000000000001,-0.385,0.3869,0.009000000000000001,0.011,-0.055
1670355436.999969,-9.196,-0.11,4.836,-0.6503,-0.387,0.3922,0.017,0.01,-0.058
1670355437.039968,-9.173,-0.097,4.819,-0.6483,-0.3855,0.389,0.01,0.015,-0.054
1670355437.079968,-9.137,-0.083,4.853,-0.6456000000000001,-0.38330000000000003,0.38780000000000003,0.005,0.011,-0.049
1670355437.119968,-9.171,-0.082,4.8500000000000005,-0.6488,-0.3839,0.3886,0.009000000000000001,0.014,-0.04
1670355437.159968,-9.252,-0.116,4.843,-0.6497,-0.3859,0.3891,0.016,0.023,-0.056
1670355437.199968,-9.169,-0.084,4.8100000000000005,-0.6476000000000001,-0.3846,0.3902,0.008,0.021,-0.062
1670355437.239968,-9.177,-0.128,4.806,-0.6505000000000001,-0.38620000000000004,0.38830000000000003,-0.003,0.016,-0.045
1670355437.279968,-9.169,-0.11,4.841,-0.651,-0.38630000000000003,0.385,-0.005,0.01,-0.045
1670355437.319968,-9.201,-0.092,4.873,-0.6475000000000001,-0.38330000000000003,0.3896,0.004,0.007,-0.056
1670355437.359968,-9.178,-0.116,4.846,-0.6476000000000001,-0.38070000000000004,0.38770000000000004,0.006,0.002,-0.059000000000000004
1670355437.399968,-9.15,-0.122,4.821,-0.6476000000000001,-0.38520000000000004,0.38820000000000005,-0.001,0.014,-0.046
1670355437.439968,-9.226,-0.09,4.877,-0.6482,-0.38520000000000004,0.3899,0.006,0.018000000000000002,-0.041
1670355437.479968,-9.191,-0.061,4.869,-0.648,-0.3844,0.3869,0.015,0.027,-0.059000000000000004
1670355437.519968,-9.151,-0.123,4.816,-0.6478,-0.3859,0.38830000000000003,0.009000000000000001,0.033,-0.047
1670355437.559968,-9.151,-0.093,4.84,-0.6461,-0.38480000000000003,0.39130000000000004,0.0,0.021,-0.038
1670355437.599968,-9.191,-0.037,4.827,-0.649,-0.385,0.39080000000000004,0.009000000000000001,0.017,-0.047
1670355437.639968,-9.196,-0.093,4.862,-0.6493,-0.385,0.3866,0.018000000000000002,0.006,-0.062
1670355437.679968,-9.17,-0.123,4.846,-0.6495000000000001,-0.38420000000000004,0.3886,0.005,0.011,-0.056
1670355437.719968,-9.199,-0.10200000000000001,4.864,-0.6481,-0.3844,0.38670000000000004,-0.009000000000000001,0.018000000000000002,-0.047
1670355437.759968,-9.202,-0.101,4.886,-0.6458,-0.38280000000000003,0.39030000000000004,-0.003,0.018000000000000002,-0.053
1670355437.799968,-9.184000000000001,-0.121,4.871,-0.6467,-0.3865,0.3891,0.006,0.023,-0.053
1670355437.839968,-9.184000000000001,-0.113,4.836,-0.6479,-0.38520000000000004,0.39,0.003,0.02,-0.052000000000000005
1670355437.879968,-9.181000000000001,-0.101,4.864,-0.6499,-0.38580000000000003,0.38880000000000003,0.011,0.012,-0.048
1670355437.919968,-9.182,-0.076,4.8790000000000004,-0.6509,-0.38420000000000004,0.3916,0.007,0.01,-0.049
1670355437.9599679,-9.172,-0.122,4.864,-0.6458,-0.38580000000000003,0.3874,0.01,0.02,-0.052000000000000005
1670355437.999968,-9.166,-0.139,4.8580000000000005,-0.6546000000000001,-0.3891,0.3966,0.009000000000000001,0.016,-0.052000000000000005
1670355438.039968,-9.182,-0.109,4.862,-0.6554,-0.38570000000000004,0.39,0.001,0.023,-0.051000000000000004
1670355438.079967,-9.168000000000001,-0.047,4.874,-0.6462,-0.3859,0.3886,-0.001,0.023,-0.041
1670355438.119967,-9.172,-0.12,4.857,-0.6494,-0.38480000000000003,0.38220000000000004,0.02,0.034,-0.051000000000000004
1670355438.159967,-9.127,-0.057,4.814,-0.6484,-0.388,0.3808,0.015,0.017,-0.055
1670355438.199967,-9.127,-0.083,4.801,-0.6484,-0.38420000000000004,0.3801,0.01,0.011,-0.046
1670355438.239967,-9.179,-0.083,4.801,-0.6484,-0.38420000000000004,0.3801,0.0,0.011,-0.047
1670355438.279967,-9.198,-0.082,4.909,-0.6497,-0.3869,0.39380000000000004,0.003,0.009000000000000001,-0.056
1670355438.319967,-9.187,-0.083,4.918,-0.6472,-0.3866,0.40180000000000005,0.005,0.007,-0.06
1670355438.359967,-9.156,-0.12,4.86,-0.651,-0.38820000000000005,0.4062,-0.006,0.011,-0.054
1670355438.399967,-9.112,-0.075,4.8870000000000005,-0.6494,-0.385,0.38830000000000003,0.002,0.01,-0.048
1670355438.439967,-9.178,-0.134,4.878,-0.6496000000000001,-0.3845,0.38980000000000004,0.01,0.029,-0.056
1670355438.479967,-9.192,-0.083,4.855,-0.6477,-0.3841,0.3895,0.008,0.029,-0.044
1670355438.519967,-9.154,-0.124,4.8790000000000004,-0.6487,-0.3845,0.3907,-0.002,0.021,-0.045
1670355438.559967,-9.158,-0.07,4.87,-0.649,-0.38470000000000004,0.3874,0.005,0.013000000000000001,-0.053
1670355438.599967,-9.175,-0.077,4.876,-0.6462,-0.385,0.3885,0.018000000000000002,0.008,-0.061
1670355438.639967,-9.173,-0.125,4.861,-0.6495000000000001,-0.38470000000000004,0.38730000000000003,0.002,0.015,-0.053
1670355438.679967,-9.197000000000001,-0.117,4.883,-0.6462,-0.387,0.3912,-0.011,0.02,-0.043000000000000003
1670355438.719967,-9.179,-0.111,4.855,-0.6482,-0.38230000000000003,0.38920000000000005,0.001,0.025,-0.054
1670355438.7599669,-9.182,-0.093,4.8870000000000005,-0.6504,-0.3866,0.3985,0.002,0.023,-0.055
1670355438.799967,-9.178,-0.111,4.872,-0.6471,-0.3851,0.3866,0.005,0.026000000000000002,-0.047
1670355438.839967,-9.15,-0.111,4.902,-0.6621,-0.3871,0.3932,0.003,0.018000000000000002,-0.048
1670355438.879967,-9.157,-0.077,4.864,-0.646,-0.38230000000000003,0.3909,0.012,0.018000000000000002,-0.05
1670355438.919967,-9.166,-0.11900000000000001,4.867,-0.649,-0.38320000000000004,0.38920000000000005,0.01,0.012,-0.045
1670355438.959967,-9.191,-0.137,4.881,-0.649,-0.3876,0.3881,0.005,0.017,-0.048
1670355438.9999669,-9.175,-0.08700000000000001,4.88,-0.6496000000000001,-0.3826,0.39030000000000004,0.0,0.017,-0.046
1670355439.039967,-9.201,-0.066,4.864,-0.6465000000000001,-0.38480000000000003,0.38870000000000005,0.009000000000000001,0.027,-0.049
1670355439.079967,-9.172,-0.15,4.837,-0.6493,-0.3846,0.3936,0.011,0.032,-0.048
1670355439.119967,-9.166,-0.061,4.83,-0.6476000000000001,-0.38770000000000004,0.3911,0.011,0.027,-0.056
1670355439.159967,-9.145,-0.09,4.806,-0.6467,-0.3854,0.3866,0.001,0.02,-0.049
1670355439.199966,-9.184000000000001,-0.093,4.876,-0.6486000000000001,-0.38370000000000004,0.38770000000000004,-0.003,0.013000000000000001,-0.049
1670355439.239966,-9.184000000000001,-0.093,4.904,-0.6485000000000001,-0.38520000000000004,0.391,0.001,0.015,-0.056
1670355439.279966,-9.181000000000001,-0.152,4.897,-0.6476000000000001,-0.3841,0.38980000000000004,0.005,0.017,-0.053
1670355439.319966,-9.129,-0.046,4.855,-0.647,-0.3836,0.3891,0.015,0.014,-0.045
1670355439.359966,-9.205,-0.149,4.854,-0.6465000000000001,-0.3856,0.389,0.013000000000000001,0.027,-0.048
1670355439.399966,-9.202,-0.083,4.8180000000000005,-0.6475000000000001,-0.385,0.3879,0.017,0.032,-0.057
1670355439.439966,-9.156,-0.10400000000000001,4.815,-0.6462,-0.3836,0.38780000000000003,0.0,0.023,-0.038
1670355439.479966,-9.17,-0.065,4.84,-0.6479,-0.3866,0.3895,0.0,0.018000000000000002,-0.041
1670355439.519966,-9.212,-0.03,4.873,-0.6478,-0.3874,0.39,0.019,0.006,-0.056
1670355439.5599658,-9.166,-0.114,4.881,-0.6463,-0.38580000000000003,0.38880000000000003,0.013000000000000001,0.002,-0.064
1670355439.599966,-9.184000000000001,-0.081,4.876,-0.6481,-0.3839,0.3906,0.002,0.001,-0.055
1670355439.639966,-9.16,-0.076,4.875,-0.6466000000000001,-0.3841,0.3889,0.007,0.007,-0.049
1670355439.679966,-9.191,-0.101,4.873,-0.6482,-0.38420000000000004,0.3879,0.018000000000000002,0.016,-0.063
1670355439.719966,-9.221,-0.126,4.873,-0.647,-0.3836,0.3905,0.005,0.027,-0.063
1670355439.759966,-9.17,-0.125,4.865,-0.6461,-0.38420000000000004,0.38880000000000003,-0.021,0.023,-0.038
1670355439.7999659,-9.145,-0.062,4.861,-0.6471,-0.3859,0.387,-0.014,0.025,-0.037
1670355439.839966,-9.175,-0.043000000000000003,4.881,-0.6481,-0.38430000000000003,0.39,0.012,0.018000000000000002,-0.054
1670355439.879966,-9.191,-0.068,4.918,-0.6485000000000001,-0.38430000000000003,0.3919,0.026000000000000002,0.019,-0.057
1670355439.919966,-9.195,-0.107,4.855,-0.6506000000000001,-0.38770000000000004,0.39280000000000004,0.026000000000000002,0.014,-0.058
1670355439.959966,-9.168000000000001,-0.128,4.884,-0.6486000000000001,-0.3861,0.3921,0.007,0.014,-0.046
1670355439.999966,-9.197000000000001,-0.127,4.852,-0.6462,-0.38470000000000004,0.38930000000000003,-0.001,0.021,-0.047
1670355440.0399659,-9.256,0.003,4.892,-0.65,-0.38780000000000003,0.38780000000000003,-0.001,0.01,-0.037
1670355440.079966,-9.147,-0.065,4.829,-0.6465000000000001,-0.39030000000000004,0.3911,0.015,0.024,-0.061
1670355440.119966,-9.163,-0.107,4.837,-0.6488,-0.38520000000000004,0.395,0.007,0.019,-0.063
1670355440.159966,-9.143,-0.074,4.873,-0.6465000000000001,-0.3864,0.3905,-0.001,0.011,-0.041
1670355440.199966,-9.176,-0.053,4.86,-0.6476000000000001,-0.38570000000000004,0.3891,0.004,0.0,-0.052000000000000005
1670355440.239965,-9.196,-0.09,4.898,-0.6471,-0.3866,0.3902,0.014,-0.003,-0.063
1670355440.279965,-9.174,-0.146,4.862,-0.6481,-0.385,0.38920000000000005,0.0,0.009000000000000001,-0.061
1670355440.319965,-9.166,0.008,4.889,-0.6473,-0.38730000000000003,0.39180000000000004,0.0,0.01,-0.041
1670355440.3599648,-9.188,-0.08,4.891,-0.6491,-0.38680000000000003,0.4078,0.009000000000000001,0.018000000000000002,-0.041
1670355440.399965,-9.188,-0.116,4.872,-0.6491,-0.386,0.4086,0.018000000000000002,0.028,-0.058
1670355440.439965,-9.176,-0.116,4.8500000000000005,-0.6492,-0.386,0.4086,0.007,0.028,-0.049
1670355440.479965,-9.156,-0.111,4.8500000000000005,-0.6488,-0.38530000000000003,0.3901,-0.009000000000000001,0.015,-0.043000000000000003
1670355440.519965,-9.135,-0.025,4.815,-0.6516000000000001,-0.3855,0.38780000000000003,0.008,0.011,-0.046
1670355440.559965,-9.162,-0.059000000000000004,4.915,-0.6465000000000001,-0.3864,0.38980000000000004,0.013000000000000001,0.012,-0.056
1670355440.5999649,-9.166,-0.096,4.867,-0.6515000000000001,-0.38770000000000004,0.386,0.003,0.008,-0.052000000000000005
1670355440.639965,-9.181000000000001,-0.1,4.87,-0.6497,-0.38670000000000004,0.3934,-0.002,0.018000000000000002,-0.044
1670355440.679965,-9.175,-0.07100000000000001,4.888,-0.6477,-0.3856,0.3885,-0.002,0.023,-0.045
1670355440.719965,-9.149000000000001,-0.061,4.8790000000000004,-0.6483,-0.384,0.38970000000000005,-0.001,0.027,-0.053
1670355440.759965,-9.131,-0.089,4.909,-0.6457,-0.38530000000000003,0.3902,0.005,0.019,-0.05
1670355440.799965,-9.15,-0.098,4.8950000000000005,-0.6465000000000001,-0.3854,0.392,0.001,0.011,-0.04
1670355440.8399649,-9.138,-0.053,4.902,-0.6599,-0.3856,0.3907,0.01,0.013000000000000001,-0.056
1670355440.879965,-9.171,-0.07,4.9190000000000005,-0.6482,-0.38770000000000004,0.38780000000000003,0.018000000000000002,0.018000000000000002,-0.063
1670355440.919965,-9.166,-0.081,4.87,-0.6527000000000001,-0.3861,0.3965,0.018000000000000002,0.022,-0.065
1670355440.959965,-9.172,-0.093,4.866,-0.6507000000000001,-0.3859,0.3866,0.005,0.024,-0.05
1670355440.999965,-9.083,-0.10200000000000001,4.885,-0.6621,-0.3916,0.40080000000000005,-0.008,0.016,-0.048
1670355441.039965,-9.204,-0.089,4.891,-0.6459,-0.38420000000000004,0.3889,0.004,0.014,-0.033
1670355441.0799649,-9.233,-0.048,4.865,-0.6471,-0.3844,0.39,0.013000000000000001,0.025,-0.061
1670355441.119965,-9.117,-0.07100000000000001,4.839,-0.6508,-0.385,0.3941,0.021,0.021,-0.068
1670355441.159965,-9.167,-0.08700000000000001,4.831,-0.6494,-0.3904,0.39580000000000004,0.004,0.016,-0.042
1670355441.199965,-9.168000000000001,-0.096,4.871,-0.6483,-0.3861,0.3889,0.0,0.014,-0.043000000000000003
1670355441.239965,-9.167,-0.046,4.89,-0.6482,-0.38530000000000003,0.3921,0.006,0.004,-0.056
1670355441.279964,-9.185,-0.07,4.9030000000000005,-0.6475000000000001,-0.3859,0.3904,0.008,0.003,-0.065
1670355441.319964,-9.159,-0.133,4.852,-0.6486000000000001,-0.38580000000000003,0.3894,-0.01,-0.001,-0.037
1670355441.359964,-9.201,-0.017,4.917,-0.6481,-0.3861,0.391,-0.001,0.008,-0.051000000000000004
1670355441.3999639,-9.209,-0.023,4.878,-0.6479,-0.3869,0.39130000000000004,0.016,0.022,-0.062
1670355441.439964,-9.147,-0.10300000000000001,4.891,-0.6489,-0.3875,0.3904,0.011,0.023,-0.054
1670355441.479964,-9.139,-0.096,4.888,-0.6491,-0.3854,0.3905,-0.002,0.015,-0.036000000000000004
1670355441.519964,-9.149000000000001,-0.026000000000000002,4.913,-0.6507000000000001,-0.38470000000000004,0.393,0.003,0.009000000000000001,-0.053
1670355441.559964,-9.151,-0.058,4.901,-0.647,-0.385,0.38830000000000003,0.01,0.013000000000000001,-0.064
1670355441.599964,-9.154,-0.111,4.894,-0.6501,-0.38580000000000003,0.3911,-0.002,0.022,-0.06
1670355441.6399639,-9.163,-0.089,4.9430000000000005,-0.6494,-0.38630000000000003,0.3899,-0.007,0.026000000000000002,-0.043000000000000003
1670355441.679964,-9.157,-0.07100000000000001,4.91,-0.6485000000000001,-0.38820000000000005,0.3899,-0.004,0.031,-0.046
1670355441.719964,-9.152000000000001,-0.088,4.886,-0.6514,-0.3869,0.3919,0.004,0.026000000000000002,-0.059000000000000004
1670355441.759964,-9.159,-0.068,4.9,-0.6472,-0.3839,0.38720000000000004,0.005,0.025,-0.056
1670355441.799964,-9.169,-0.083,4.854,-0.6489,-0.3865,0.3881,0.006,0.015,-0.05
1670355441.839964,-9.175,-0.081,4.925,-0.6498,-0.38780000000000003,0.38870000000000005,0.017,0.021,-0.053
1670355441.8799639,-9.136000000000001,-0.076,4.8790000000000004,-0.6507000000000001,-0.38670000000000004,0.39230000000000004,0.017,0.017,-0.056
1670355441.919964,-9.132,-0.077,4.9030000000000005,-0.6483,-0.3861,0.3921,0.01,0.012,-0.045
1670355441.959964,-9.231,-0.105,4.949,-0.6476000000000001,-0.387,0.38970000000000005,0.01,0.024,-0.044
1670355441.999964,-9.214,-0.052000000000000005,4.914,-0.6501,-0.3869,0.3927,0.013000000000000001,0.021,-0.045
1670355442.039964,-9.136000000000001,-0.067,4.871,-0.651,-0.38380000000000003,0.38920000000000005,0.005,0.025,-0.048
1670355442.079964,-9.111,-0.078,4.859,-0.651,-0.3865,0.39,0.0,0.026000000000000002,-0.048
1670355442.119964,-9.172,-0.031,4.871,-0.652,-0.388,0.3894,0.0,0.023,-0.044
1670355442.159964,-9.175,-0.058,4.922,-0.6515000000000001,-0.3874,0.3914,0.017,0.012,-0.056
1670355442.199964,-9.141,-0.089,4.876,-0.6515000000000001,-0.38830000000000003,0.38970000000000005,0.01,0.007,-0.057
1670355442.239964,-9.142,-0.061,4.882,-0.6472,-0.38580000000000003,0.39080000000000004,-0.001,0.012,-0.048
1670355442.279964,-9.203,-0.07100000000000001,4.917,-0.6493,-0.3866,0.393,0.001,0.015,-0.053
1670355442.319963,-9.206,-0.07,4.865,-0.6512,-0.3874,0.3874,0.013000000000000001,0.028,-0.058
1670355442.359963,-9.132,-0.077,4.892,-0.6505000000000001,-0.38530000000000003,0.38870000000000005,0.007,0.04,-0.04
1670355442.399963,-9.129,-0.05,4.907,-0.6478,-0.3856,0.391,-0.006,0.034,-0.031
1670355442.4399629,-9.178,-0.013000000000000001,4.8870000000000005,-0.6498,-0.3902,0.388,0.016,0.021,-0.053
1670355442.479963,-9.168000000000001,-0.076,4.9110000000000005,-0.6502,-0.38580000000000003,0.38980000000000004,0.024,0.01,-0.06
1670355442.519963,-9.15,-0.085,4.877,-0.6494,-0.38520000000000004,0.3901,0.002,0.001,-0.062
1670355442.559963,-9.19,-0.101,4.874,-0.649,-0.3859,0.3791,-0.007,0.008,-0.051000000000000004
1670355442.599963,-9.19,-0.093,4.921,-0.6531,-0.3865,0.39640000000000003,-0.009000000000000001,0.018000000000000002,-0.045
1670355442.639963,-9.19,-0.056,4.8580000000000005,-0.6531,-0.38480000000000003,0.39230000000000004,-0.003,0.018000000000000002,-0.049
1670355442.6799629,-9.174,-0.056,4.9270000000000005,-0.6523,-0.38480000000000003,0.39230000000000004,-0.001,0.023,-0.049
1670355442.719963,-9.159,-0.065,4.9270000000000005,-0.6504,-0.3866,0.37420000000000003,-0.001,0.017,-0.043000000000000003
1670355442.759963,-9.153,-0.058,4.8950000000000005,-0.6518,-0.3855,0.3901,0.009000000000000001,0.02,-0.051000000000000004
1670355442.799963,-9.153,-0.058,4.913,-0.649,-0.3864,0.3916,0.015,0.008,-0.056
1670355442.839963,-9.176,-0.083,4.9110000000000005,-0.6619,-0.38820000000000005,0.4254,0.005,0.014,-0.052000000000000005
1670355442.879963,-9.129,-0.08700000000000001,4.91,-0.6486000000000001,-0.386,0.3889,0.003,0.012,-0.041
1670355442.919963,-9.186,-0.105,4.937,-0.6573,-0.38630000000000003,0.39390000000000003,0.01,0.017,-0.034
1670355442.959963,-9.228,-0.009000000000000001,4.894,-0.648,-0.3855,0.39130000000000004,0.016,0.034,-0.049
1670355442.999963,-9.142,-0.037,4.916,-0.6528,-0.38870000000000005,0.3991,0.009000000000000001,0.032,-0.048
1670355443.039963,-9.135,-0.096,4.812,-0.6507000000000001,-0.38670000000000004,0.3915,-0.001,0.024,-0.043000000000000003
1670355443.079963,-9.158,-0.062,4.861,-0.6628000000000001,-0.3925,0.40140000000000003,-0.005,0.014,-0.047
1670355443.119963,-9.161,-0.029,4.9190000000000005,-0.6477,-0.38630000000000003,0.388,-0.005,0.006,-0.054
1670355443.159963,-9.16,-0.037,4.907,-0.6497,-0.38720000000000004,0.3919,-0.003,0.006,-0.058
1670355443.199963,-9.184000000000001,-0.09,4.869,-0.6515000000000001,-0.3864,0.388,-0.005,0.003,-0.045
1670355443.239963,-9.191,-0.019,4.909,-0.6494,-0.38470000000000004,0.38830000000000003,0.001,0.019,-0.047
1670355443.279963,-9.19,-0.041,4.928,-0.6504,-0.3879,0.3924,0.014,0.031,-0.056
1670355443.319963,-9.172,-0.079,4.907,-0.6512,-0.3855,0.3902,0.009000000000000001,0.021,-0.044
1670355443.359962,-9.167,-0.028,4.869,-0.6501,-0.3869,0.3876,0.015,0.009000000000000001,-0.043000000000000003
1670355443.399962,-9.103,-0.022,4.912,-0.6475000000000001,-0.3894,0.3901,0.042,0.001,-0.065
1670355443.439962,-9.158,-0.07200000000000001,4.896,-0.6496000000000001,-0.3869,0.3901,0.034,0.006,-0.059000000000000004
1670355443.4799619,-9.153,-0.116,4.877,-0.651,-0.3884,0.3916,0.011,-0.007,-0.043000000000000003
1670355443.519962,-9.133000000000001,-0.082,4.908,-0.6486000000000001,-0.3871,0.39080000000000004,-0.006,0.007,-0.04
1670355443.559962,-9.156,-0.007,4.888,-0.6498,-0.3895,0.3905,0.007,0.011,-0.044
1670355443.599962,-9.151,-0.031,4.913,-0.6496000000000001,-0.38580000000000003,0.3917,0.012,0.022,-0.054
1670355443.639962,-9.17,-0.031,4.954,-0.6495000000000001,-0.38830000000000003,0.39,0.011,0.022,-0.052000000000000005
1670355443.679962,-9.126,-0.062,4.9030000000000005,-0.6527000000000001,-0.38780000000000003,0.39030000000000004,0.0,0.022,-0.047
1670355443.719962,-9.128,0.0,4.934,-0.65,-0.3886,0.3906,0.0,0.021,-0.04
1670355443.759962,-9.148,-0.024,4.928,-0.6493,-0.3874,0.3911,0.006,0.022,-0.045
1670355443.799962,-9.143,-0.022,4.898,-0.6491,-0.38820000000000005,0.391,0.009000000000000001,0.021,-0.051000000000000004
1670355443.839962,-9.139,-0.04,4.891,-0.6515000000000001,-0.38620000000000004,0.39380000000000004,0.002,0.028,-0.05
1670355443.879962,-9.147,-0.064,4.91,-0.6506000000000001,-0.388,0.392,-0.002,0.026000000000000002,-0.048
1670355443.919962,-9.208,-0.056,4.8950000000000005,-0.6487,-0.38770000000000004,0.3905,-0.01,0.032,-0.044
1670355443.959962,-9.215,0.027,4.9350000000000005,-0.6497,-0.3894,0.39030000000000004,0.004,0.035,-0.057
1670355443.999962,-9.124,-0.065,4.877,-0.651,-0.3881,0.3891,0.001,0.026000000000000002,-0.061
1670355444.039962,-9.141,-0.078,4.859,-0.6511,-0.3889,0.38670000000000004,-0.005,0.021,-0.05
1670355444.079962,-9.172,-0.026000000000000002,4.869,-0.6513,-0.38720000000000004,0.39030000000000004,0.0,0.025,-0.056
1670355444.119962,-9.145,-0.027,4.912,-0.6508,-0.38580000000000003,0.3909,0.018000000000000002,0.011,-0.07
1670355444.159962,-9.178,-0.10200000000000001,4.892,-0.6463,-0.38820000000000005,0.3919,0.013000000000000001,0.003,-0.063
1670355444.199962,-9.164,-0.137,4.88,-0.6523,-0.38880000000000003,0.39230000000000004,-0.001,-0.007,-0.051000000000000004
1670355444.239962,-9.156,0.067,4.947,-0.6541,-0.388,0.3924,0.01,0.003,-0.036000000000000004
1670355444.279962,-9.175,-0.044,4.913,-0.6515000000000001,-0.3879,0.39030000000000004,0.032,0.008,-0.055
1670355444.319962,-9.138,-0.08700000000000001,4.905,-0.649,-0.388,0.3922,0.023,0.019,-0.06
1670355444.359962,-9.114,-0.065,4.8790000000000004,-0.6479,-0.38770000000000004,0.3935,0.001,0.019,-0.036000000000000004
1670355444.399961,-9.114,-0.007,4.948,-0.6477,-0.38920000000000005,0.39530000000000004,-0.002,0.015,-0.04
1670355444.439961,-9.13,0.015,4.94,-0.6503,-0.3889,0.3914,0.011,0.007,-0.058
1670355444.479961,-9.136000000000001,-0.06,4.936,-0.6504,-0.3859,0.39,0.008,0.015,-0.063
1670355444.5199609,-9.163,-0.073,4.91,-0.6503,-0.3895,0.3921,-0.007,0.023,-0.052000000000000005
1670355444.559961,-9.151,-0.034,4.964,-0.6513,-0.387,0.3914,-0.012,0.03,-0.043000000000000003
1670355444.599961,-9.145,-0.025,4.931,-0.6515000000000001,-0.3876,0.3894,-0.004,0.036000000000000004,-0.055
1670355444.639961,-9.134,-0.036000000000000004,4.875,-0.6501,-0.38670000000000004,0.3919,0.004,0.035,-0.056
1670355444.679961,-9.125,-0.067,4.886,-0.6531,-0.3869,0.3911,-0.002,0.028,-0.052000000000000005
1670355444.719961,-9.139,-0.056,4.913,-0.6487,-0.3859,0.3891,-0.006,0.022,-0.048
1670355444.759961,-9.15,-0.033,4.9030000000000005,-0.6508,-0.38780000000000003,0.3901,0.0,0.014,-0.047
1670355444.799961,-9.166,-0.043000000000000003,4.874,-0.649,-0.3871,0.3899,0.005,0.014,-0.048
1670355444.839961,-9.154,-0.05,4.881,-0.654,-0.3881,0.3562,0.005,0.012,-0.046
1670355444.799961,-9.147,-0.034,4.904,-0.6601,-0.39440000000000003,0.401,0.003,0.02,-0.043000000000000003
1670355444.839961,-9.147,-0.034,4.898,-0.6601,-0.39440000000000003,0.401,0.005,0.018000000000000002,-0.054
1670355444.879961,-9.148,-0.081,4.898,-0.649,-0.38680000000000003,0.3975,0.001,0.012,-0.047
1670355444.919961,-9.178,-0.077,4.933,-0.6639,-0.388,0.378,0.003,0.008,-0.036000000000000004
1670355444.959961,-9.239,0.035,4.913,-0.6506000000000001,-0.3861,0.3708,0.02,0.014,-0.061
1670355444.999961,-9.133000000000001,-0.068,4.886,-0.6546000000000001,-0.38980000000000004,0.4052,0.012,0.011,-0.054
1670355445.039961,-9.112,-0.073,4.859,-0.6505000000000001,-0.3896,0.38920000000000005,0.002,0.007,-0.033
1670355445.079961,-9.176,-0.029,4.934,-0.6599,-0.39280000000000004,0.4015,0.005,0.008,-0.045
1670355445.119961,-9.147,-0.013000000000000001,4.9430000000000005,-0.6495000000000001,-0.38630000000000003,0.3941,0.015,0.01,-0.055
1670355445.159961,-9.16,-0.07,4.934,-0.6492,-0.38870000000000005,0.3932,0.01,0.006,-0.052000000000000005
1670355445.199961,-9.14,-0.078,4.908,-0.6506000000000001,-0.387,0.39380000000000004,-0.007,0.011,-0.044
1670355445.239961,-9.15,0.04,4.931,-0.6516000000000001,-0.3891,0.3911,0.007,0.018000000000000002,-0.046
1670355445.279961,-9.166,-0.044,4.908,-0.6515000000000001,-0.38670000000000004,0.3912,0.01,0.025,-0.05
1670355445.319961,-9.132,-0.033,4.9,-0.6502,-0.3856,0.3864,0.01,0.025,-0.047
1670355445.359961,-9.138,-0.018000000000000002,4.881,-0.648,-0.3869,0.3907,0.0,0.014,-0.04
1670355445.399961,-9.144,-0.001,4.942,-0.65,-0.38530000000000003,0.3881,0.006,0.01,-0.056
1670355445.43996,-9.133000000000001,-0.02,4.9190000000000005,-0.652,-0.3869,0.3922,0.013000000000000001,0.011,-0.068
1670355445.47996,-9.152000000000001,-0.076,4.931,-0.651,-0.38920000000000005,0.3896,0.002,0.01,-0.058
1670355445.51996,-9.146,-0.042,4.929,-0.6508,-0.3889,0.3942,-0.011,0.011,-0.059000000000000004
1670355445.55996,-9.159,-0.055,4.922,-0.6494,-0.38670000000000004,0.3921,-0.013000000000000001,0.012,-0.058
1670355445.59996,-9.142,-0.041,4.924,-0.6498,-0.3874,0.3919,-0.006,0.016,-0.06
1670355445.63996,-9.148,-0.067,4.942,-0.6521,-0.3844,0.39280000000000004,-0.002,0.019,-0.055
1670355445.67996,-9.111,-0.053,4.945,-0.6503,-0.3886,0.38920000000000005,0.001,0.018000000000000002,-0.053
1670355445.71996,-9.126,-0.068,4.932,-0.6485000000000001,-0.38570000000000004,0.39330000000000004,0.005,0.02,-0.052000000000000005
1670355445.75996,-9.131,-0.076,4.926,-0.6493,-0.3881,0.3925,0.011,0.019,-0.053
1670355445.79996,-9.112,-0.046,4.94,-0.6505000000000001,-0.3856,0.391,0.007,0.023,-0.051000000000000004
1670355445.83996,-9.1,-0.074,4.94,-0.6489,-0.38720000000000004,0.39440000000000003,0.008,0.015,-0.045
1670355445.87996,-9.183,-0.07100000000000001,4.931,-0.649,-0.38770000000000004,0.39030000000000004,0.008,0.019,-0.036000000000000004
1670355445.91996,-9.200000000000001,-0.023,4.928,-0.65,-0.386,0.3932,0.014,0.024,-0.049
1670355445.95996,-9.102,-0.039,4.936,-0.6496000000000001,-0.38920000000000005,0.3922,0.014,0.025,-0.046
1670355445.99996,-9.14,-0.057,4.875,-0.6499,-0.3875,0.394,0.005,0.012,-0.045
1670355446.03996,-9.133000000000001,-0.049,4.92,-0.6492,-0.38730000000000003,0.39230000000000004,0.001,0.009000000000000001,-0.052000000000000005
1670355446.07996,-9.122,-0.016,5.0040000000000004,-0.6515000000000001,-0.3889,0.3942,0.006,0.002,-0.055
1670355446.11996,-9.099,-0.065,4.9430000000000005,-0.6518,-0.38720000000000004,0.3899,0.004,0.005,-0.053
1670355446.15996,-9.154,-0.059000000000000004,4.944,-0.6499,-0.38720000000000004,0.3932,-0.004,0.017,-0.049
1670355446.19996,-9.181000000000001,-0.002,4.95,-0.6509,-0.3894,0.3901,0.012,0.028,-0.048
1670355446.23996,-9.15,-0.043000000000000003,4.964,-0.6501,-0.3874,0.39640000000000003,0.013000000000000001,0.036000000000000004,-0.05
1670355446.27996,-9.096,-0.053,4.939,-0.6504,-0.3885,0.39330000000000004,0.003,0.026000000000000002,-0.043000000000000003
1670355446.31996,-9.139,-0.046,4.931,-0.6493,-0.38730000000000003,0.392,-0.001,0.023,-0.043000000000000003
1670355446.35996,-9.145,0.005,4.931,-0.6493,-0.38880000000000003,0.3894,0.008,0.009000000000000001,-0.058
1670355446.39996,-9.116,-0.031,4.9430000000000005,-0.6502,-0.38780000000000003,0.3919,0.017,0.01,-0.058
1670355446.43996,-9.119,-0.064,4.926,-0.6537000000000001,-0.3881,0.39330000000000004,0.006,0.018000000000000002,-0.056
1670355446.479959,-9.151,-0.056,4.92,-0.6516000000000001,-0.3906,0.39030000000000004,0.006,0.011,-0.046
1670355446.519959,-9.162,-0.024,4.94,-0.6539,-0.3886,0.3917,0.0,0.025,-0.054
1670355446.559959,-9.146,-0.043000000000000003,5.009,-0.652,-0.3875,0.393,0.001,0.026000000000000002,-0.05
1670355446.599959,-9.113,-0.038,4.97,-0.6501,-0.388,0.3912,0.001,0.021,-0.052000000000000005
1670355446.639959,-9.121,-0.038,4.955,-0.6503,-0.3869,0.3921,0.0,0.016,-0.05
1670355446.679959,-9.134,-0.043000000000000003,4.928,-0.6512,-0.38520000000000004,0.39390000000000003,0.011,0.018000000000000002,-0.06
1670355446.719959,-9.120000000000001,-0.044,4.947,-0.651,-0.38780000000000003,0.3929,0.007,0.016,-0.057
1670355446.759959,-9.079,-0.03,4.985,-0.6508,-0.38630000000000003,0.3924,-0.001,0.015,-0.051000000000000004
1670355446.799959,-9.16,-0.074,4.976,-0.65,-0.3855,0.3911,-0.003,0.014,-0.046
1670355446.839959,-9.207,-0.04,5.008,-0.6531,-0.3874,0.39080000000000004,0.008,0.032,-0.05
1670355446.879959,-9.086,-0.014,4.909,-0.6524,-0.387,0.3911,0.01,0.033,-0.047
1670355446.919959,-9.119,-0.068,4.867,-0.6503,-0.38770000000000004,0.3915,0.004,0.032,-0.053
1670355446.959959,-9.152000000000001,-0.043000000000000003,4.905,-0.6584,-0.3907,0.41960000000000003,-0.003,0.023,-0.044
1670355446.999959,-9.144,-0.041,4.984,-0.6518,-0.38630000000000003,0.4,0.0,0.012,-0.05
1670355447.039959,-9.144,-0.045,4.962,-0.6518,-0.3866,0.39630000000000004,0.005,0.012,-0.054
1670355447.079959,-9.129,-0.045,4.962,-0.6646000000000001,-0.3866,0.39630000000000004,0.008,0.012,-0.056
1670355447.119959,-9.121,-0.056,4.941,-0.6521,-0.3861,0.4063,0.015,0.011,-0.044
1670355447.159959,-9.175,-0.038,4.938,-0.6526000000000001,-0.38880000000000003,0.39230000000000004,0.008,0.028,-0.044
1670355447.199959,-9.176,-0.018000000000000002,4.941,-0.6524,-0.3886,0.3922,0.015,0.04,-0.048
1670355447.239959,-9.133000000000001,-0.032,4.888,-0.6502,-0.3879,0.3921,0.002,0.023,-0.038
1670355447.279959,-9.108,-0.025,4.8950000000000005,-0.6505000000000001,-0.388,0.3914,0.007,0.014,-0.042
1670355447.319959,-9.15,0.005,4.909,-0.6491,-0.38720000000000004,0.3912,0.014,0.007,-0.061
1670355447.359959,-9.159,-0.017,4.958,-0.6519,-0.38930000000000003,0.38830000000000003,0.016,0.007,-0.065
1670355447.3999588,-9.14,-0.052000000000000005,4.931,-0.6506000000000001,-0.3902,0.3936,-0.003,0.008,-0.05
1670355447.439959,-9.144,-0.05,4.898,-0.6522,-0.3889,0.3932,-0.002,0.012,-0.043000000000000003
1670355447.479959,-9.15,-0.025,4.908,-0.6514,-0.38830000000000003,0.38980000000000004,0.005,0.02,-0.056
1670355447.519958,-9.129,-0.023,4.968,-0.6539,-0.3886,0.39430000000000004,0.009000000000000001,0.016,-0.056
1670355447.559958,-9.127,-0.053,4.9670000000000005,-0.6494,-0.38770000000000004,0.39280000000000004,0.001,0.014,-0.049
1670355447.599958,-9.112,-0.043000000000000003,4.95,-0.6525000000000001,-0.38820000000000005,0.3902,0.0,0.016,-0.05
1670355447.639958,-9.133000000000001,-0.022,4.9350000000000005,-0.6517000000000001,-0.38680000000000003,0.3917,0.009000000000000001,0.012,-0.053
1670355447.679958,-9.13,-0.045,4.938,-0.649,-0.3894,0.39330000000000004,0.011,0.015,-0.059000000000000004
1670355447.719958,-9.182,-0.074,4.976,-0.6504,-0.38720000000000004,0.3919,0.004,0.014,-0.046
1670355447.759958,-9.112,-0.031,4.9510000000000005,-0.6531,-0.38830000000000003,0.3934,-0.002,0.018000000000000002,-0.044
1670355447.799958,-9.118,0.033,4.952,-0.6518,-0.3889,0.3932,0.015,0.011,-0.046
1670355447.839958,-9.162,-0.084,4.886,-0.6504,-0.3895,0.39230000000000004,0.017,0.016,-0.058
1670355447.879958,-9.132,-0.022,4.942,-0.6524,-0.3874,0.3917,-0.003,0.029,-0.049
1670355447.919958,-9.098,-0.05,4.923,-0.6499,-0.3845,0.3911,-0.008,0.009000000000000001,-0.043000000000000003
1670355447.959958,-9.117,0.004,4.918,-0.6522,-0.38720000000000004,0.3916,0.015,0.0,-0.056
1670355447.999958,-9.118,-0.023,4.9830000000000005,-0.6521,-0.3885,0.3927,0.033,0.002,-0.067
1670355448.039958,-9.094,-0.083,4.982,-0.649,-0.39,0.3927,0.007,0.007,-0.062
1670355448.079958,-9.072000000000001,-0.02,4.957,-0.6497,-0.3875,0.3917,0.014,0.008,-0.04
1670355448.119958,-9.13,-0.08,4.9830000000000005,-0.6517000000000001,-0.38980000000000004,0.39030000000000004,0.013000000000000001,0.02,-0.049
1670355448.159958,-9.14,0.003,4.97,-0.6554,-0.3905,0.39180000000000004,0.015,0.029,-0.057
1670355448.1999578,-9.098,-0.038,4.97,-0.6512,-0.3886,0.3932,-0.003,0.025,-0.043000000000000003
1670355448.239958,-9.093,-0.006,4.923,-0.6502,-0.3905,0.3935,-0.007,0.022,-0.042
1670355448.279958,-9.124,0.017,4.9430000000000005,-0.6508,-0.3861,0.3919,0.006,0.016,-0.063
1670355448.319958,-9.148,-0.036000000000000004,4.932,-0.6516000000000001,-0.388,0.39330000000000004,0.006,0.012,-0.07100000000000001
1670355448.359958,-9.139,-0.048,4.961,-0.6521,-0.38730000000000003,0.39,-0.014,0.013000000000000001,-0.056
1670355448.399958,-9.114,-0.023,4.944,-0.6524,-0.3885,0.391,-0.014,0.016,-0.049
1670355448.4399579,-9.111,-0.03,4.9270000000000005,-0.6505000000000001,-0.38730000000000003,0.39080000000000004,-0.005,0.025,-0.053
1670355448.479958,-9.114,-0.056,4.948,-0.6507000000000001,-0.3885,0.3922,0.0,0.031,-0.054
1670355448.519958,-9.081,-0.05,4.938,-0.6501,-0.38780000000000003,0.39130000000000004,0.003,0.025,-0.052000000000000005
1670355448.559958,-9.118,-0.049,4.931,-0.6504,-0.38780000000000003,0.3916,-0.001,0.017,-0.04
1670355448.599958,-9.132,-0.049,4.964,-0.6517000000000001,-0.3885,0.3915,0.008,0.017,-0.052000000000000005
1670355448.639957,-9.144,-0.058,4.9190000000000005,-0.6486000000000001,-0.3861,0.3929,0.007,0.015,-0.048
1670355448.679957,-9.088000000000001,-0.077,4.969,-0.6499,-0.3889,0.3917,-0.011,0.023,-0.04
1670355448.719957,-9.131,-0.052000000000000005,4.938,-0.6504,-0.3839,0.3905,-0.013000000000000001,0.02,-0.043000000000000003
1670355448.759957,-9.194,0.043000000000000003,4.942,-0.651,-0.3881,0.3925,0.008,0.027,-0.047
1670355448.799957,-9.142,-0.065,4.932,-0.6494,-0.3895,0.39,0.011,0.034,-0.059000000000000004
1670355448.839957,-9.09,-0.077,4.898,-0.651,-0.38880000000000003,0.3919,0.007,0.021,-0.053
1670355448.879957,-9.141,-0.054,4.938,-0.6497,-0.3889,0.3935,-0.01,0.016,-0.042
1670355448.919957,-9.138,-0.019,4.961,-0.6491,-0.38780000000000003,0.3925,-0.002,0.012,-0.055
1670355448.959957,-9.126,-0.073,5.009,-0.6499,-0.3854,0.393,0.012,0.005,-0.061
1670355448.9999568,-9.15,-0.122,4.939,-0.6491,-0.3855,0.3919,0.001,0.012,-0.06
1670355449.039957,-9.135,0.004,4.982,-0.6516000000000001,-0.387,0.393,0.01,0.008,-0.038
1670355449.079957,-9.135,-0.053,4.954,-0.6514,-0.38780000000000003,0.3947,0.014,0.025,-0.043000000000000003
1670355449.119957,-9.138,-0.058,4.949,-0.6637000000000001,-0.3912,0.40280000000000005,0.016,0.035,-0.048
1670355449.159957,-9.102,-0.06,4.936,-0.6501,-0.3875,0.39640000000000003,0.015,0.026000000000000002,-0.041
1670355449.199957,-9.141,-0.005,4.9590000000000005,-0.658,-0.38920000000000005,0.395,0.009000000000000001,0.019,-0.041
1670355449.2399569,-9.125,-0.026000000000000002,4.9430000000000005,-0.658,-0.3886,0.3996,0.013000000000000001,0.007,-0.055
1670355449.279957,-9.125,-0.026000000000000002,4.918,-0.6546000000000001,-0.3886,0.3861,0.007,0.011,-0.057
1670355449.319957,-9.126,-0.054,4.918,-0.652,-0.3855,0.3861,0.002,0.01,-0.05
1670355449.359957,-9.133000000000001,-0.045,4.966,-0.6524,-0.38630000000000003,0.3917,-0.001,0.016,-0.048
1670355449.399957,-9.115,-0.047,4.957,-0.6529,-0.3884,0.38830000000000003,0.003,0.017,-0.049
1670355449.439957,-9.123,-0.033,4.969,-0.6542,-0.3839,0.40840000000000004,-0.001,0.021,-0.053
1670355449.4799569,-9.127,-0.057,4.976,-0.6498,-0.38970000000000005,0.391,0.005,0.024,-0.046
1670355449.519957,-9.120000000000001,-0.028,4.955,-0.6503,-0.3869,0.39080000000000004,0.008,0.019,-0.052000000000000005
1670355449.559957,-9.126,-0.026000000000000002,4.949,-0.6504,-0.3856,0.3936,0.01,0.021,-0.056
1670355449.599957,-9.121,-0.092,4.973,-0.6506000000000001,-0.3865,0.39080000000000004,0.0,0.021,-0.049
1670355449.639957,-9.156,-0.068,4.992,-0.6486000000000001,-0.38830000000000003,0.39,0.003,0.029,-0.041
1670355449.679956,-9.148,0.021,4.955,-0.6503,-0.3895,0.39580000000000004,0.011,0.041,-0.045
1670355449.719956,-9.136000000000001,-0.093,4.894,-0.6488,-0.38780000000000003,0.3922,0.008,0.036000000000000004,-0.056
1670355449.759956,-9.095,-0.026000000000000002,4.841,-0.6507000000000001,-0.3886,0.39440000000000003,0.003,0.028,-0.045
1670355449.7999558,-9.135,-0.022,4.885,-0.6502,-0.387,0.39490000000000003,-0.002,0.016,-0.049
