timestamp,acc_x,acc_y,acc_z,magn_x,magn_y,magn_z,gyro_x,gyro_y,gyro_z
1670355635.08,-9.913,-0.077,3.399,-0.6251,-0.3932,0.3133,0.008,0.018000000000000002,-0.058
1670355635.12,-9.912,-0.076,3.404,-0.6246,-0.3941,0.31170000000000003,0.003,0.016,-0.054
1670355635.16,-9.909,-0.064,3.359,-0.6218,-0.39330000000000004,0.3104,0.0,0.027,-0.056
1670355635.2,-9.893,-0.058,3.396,-0.6265000000000001,-0.3942,0.31010000000000004,0.002,0.022,-0.055
1670355635.24,-9.906,-0.076,3.376,-0.6256,-0.3955,0.30820000000000003,0.001,0.018000000000000002,-0.056
1670355635.28,-9.861,-0.081,3.391,-0.629,-0.3955,0.31720000000000004,0.001,0.012,-0.051000000000000004
1670355635.32,-9.964,-0.042,3.396,-0.6234000000000001,-0.3956,0.3103,0.012,0.016,-0.047
1670355635.36,-9.991,-0.058,3.4010000000000002,-0.6217,-0.3932,0.31010000000000004,0.008,0.023,-0.048
1670355635.4,-9.875,-0.08,3.334,-0.6235,-0.3946,0.3111,-0.003,0.023,-0.052000000000000005
1670355635.44,-9.882,-0.082,3.313,-0.6242,-0.3914,0.3103,0.0,0.018000000000000002,-0.053
1670355635.48,-9.904,-0.062,3.373,-0.625,-0.39180000000000004,0.308,0.0,0.01,-0.063
1670355635.52,-9.939,-0.074,3.398,-0.6234000000000001,-0.3905,0.312,0.007,0.007,-0.057
1670355635.559999,-9.907,-0.088,3.371,-0.6229,-0.3935,0.3093,0.001,0.01,-0.058
1670355635.599999,-9.906,-0.123,3.376,-0.6239,-0.39480000000000004,0.31120000000000003,-0.004,0.014,-0.052000000000000005
1670355635.639999,-9.979000000000001,-0.022,3.411,-0.6233000000000001,-0.39440000000000003,0.312,0.013000000000000001,0.013000000000000001,-0.054
1670355635.6799989,-9.916,-0.093,3.42,-0.6242,-0.39230000000000004,0.3103,0.011,0.03,-0.052000000000000005
1670355635.719999,-9.884,-0.094,3.374,-0.6242,-0.39480000000000004,0.3104,0.004,0.026000000000000002,-0.05
1670355635.759999,-9.904,-0.082,3.368,-0.6222,-0.39280000000000004,0.3089,0.011,0.024,-0.046
1670355635.799999,-9.923,-0.065,3.37,-0.6243000000000001,-0.3946,0.3104,0.014,0.015,-0.052000000000000005
1670355635.839999,-9.906,-0.089,3.347,-0.6256,-0.39390000000000003,0.3084,0.011,0.017,-0.057
1670355635.879999,-9.889,-0.092,3.358,-0.6227,-0.3946,0.30960000000000004,-0.006,0.015,-0.053
1670355635.919999,-9.888,-0.07,3.366,-0.6238,-0.39080000000000004,0.3118,-0.009000000000000001,0.019,-0.046
1670355635.959999,-9.925,-0.089,3.342,-0.6231,-0.3911,0.30910000000000004,0.003,0.015,-0.051000000000000004
1670355635.999999,-9.889,-0.101,3.384,-0.6308,-0.3921,0.3106,0.003,0.017,-0.056
1670355636.039999,-9.904,-0.081,3.365,-0.6228,-0.3916,0.3119,0.005,0.017,-0.059000000000000004
1670355636.079999,-9.928,-0.09,3.379,-0.6244000000000001,-0.3922,0.30810000000000004,0.001,0.013000000000000001,-0.05
1670355636.119999,-9.879,-0.10200000000000001,3.3770000000000002,-0.6255000000000001,-0.3935,0.3124,0.005,0.012,-0.049
1670355636.159999,-9.91,-0.122,3.416,-0.6255000000000001,-0.3947,0.313,-0.003,0.008,-0.053
1670355636.199999,-9.868,-0.10200000000000001,3.4170000000000003,-0.6254000000000001,-0.39080000000000004,0.3109,0.0,-0.003,-0.049
1670355636.239999,-9.915000000000001,-0.018000000000000002,3.374,-0.6255000000000001,-0.3917,0.31010000000000004,0.011,0.008,-0.044
1670355636.279999,-9.889,-0.17,3.37,-0.6237,-0.392,0.31220000000000003,0.012,0.019,-0.056
1670355636.319999,-9.873,-0.09,3.3240000000000003,-0.6245,-0.3924,0.312,0.004,0.018000000000000002,-0.052000000000000005
1670355636.359999,-9.876,-0.068,3.386,-0.6237,-0.3919,0.3094,-0.01,0.014,-0.042
1670355636.399999,-9.925,-0.079,3.365,-0.6233000000000001,-0.3927,0.316,0.002,0.012,-0.047
1670355636.439999,-9.921,-0.11,3.394,-0.6296,-0.3919,0.3168,0.014,0.012,-0.056
1670355636.479999,-9.839,-0.186,3.42,-0.6254000000000001,-0.3932,0.31170000000000003,0.009000000000000001,0.011,-0.048
1670355636.519999,-9.866,-0.052000000000000005,3.4050000000000002,-0.6267,-0.3942,0.3133,-0.001,0.006,-0.041
1670355636.559999,-9.901,-0.147,3.416,-0.6219,-0.3932,0.3131,0.005,0.014,-0.05
1670355636.599998,-9.919,-0.052000000000000005,3.42,-0.6269,-0.3914,0.2992,0.008,0.031,-0.051000000000000004
1670355636.639998,-9.834,-0.116,3.3850000000000002,-0.6252,-0.39230000000000004,0.3003,0.03,0.021,-0.059000000000000004
1670355636.679998,-9.834,-0.074,3.402,-0.6252,-0.39230000000000004,0.3169,0.015,0.003,-0.049
1670355636.719998,-9.891,-0.074,3.3850000000000002,-0.6272,-0.39230000000000004,0.3169,0.003,0.003,-0.049
1670355636.759998,-9.938,-0.135,3.3850000000000002,-0.6263000000000001,-0.39490000000000003,0.32380000000000003,-0.011,0.006,-0.051000000000000004
1670355636.799998,-9.901,-0.089,3.386,-0.6383,-0.398,0.3196,0.0,0.007,-0.051000000000000004
1670355636.839998,-9.886000000000001,-0.053,3.407,-0.6239,-0.39280000000000004,0.3125,-0.001,0.01,-0.059000000000000004
1670355636.879998,-9.888,-0.122,3.455,-0.6321,-0.3937,0.2963,-0.002,0.013000000000000001,-0.055
1670355636.919998,-9.91,-0.105,3.432,-0.6238,-0.39330000000000004,0.3131,-0.001,0.013000000000000001,-0.056
1670355636.959998,-9.884,-0.127,3.399,-0.6314000000000001,-0.3965,0.3234,0.002,0.013000000000000001,-0.048
1670355636.999998,-9.862,-0.111,3.454,-0.6244000000000001,-0.3919,0.3129,0.008,0.012,-0.047
1670355637.039998,-9.909,-0.096,3.44,-0.6364000000000001,-0.3965,0.3194,0.009000000000000001,0.027,-0.045
1670355637.079998,-9.870000000000001,-0.109,3.419,-0.6231,-0.3926,0.31470000000000004,0.004,0.018000000000000002,-0.05
1670355637.119998,-9.906,-0.092,3.4290000000000003,-0.6218,-0.3926,0.31270000000000003,-0.005,0.012,-0.041
1670355637.159998,-9.823,-0.112,3.434,-0.6236,-0.39540000000000003,0.31170000000000003,-0.001,0.007,-0.041
1670355637.199998,-9.919,-0.025,3.432,-0.6227,-0.39080000000000004,0.3126,0.015,0.014,-0.049
1670355637.239998,-9.936,-0.115,3.4010000000000002,-0.6269,-0.39230000000000004,0.3149,0.0,0.025,-0.054
1670355637.279998,-9.853,-0.093,3.404,-0.6216,-0.395,0.3123,-0.006,0.021,-0.04
1670355637.319998,-9.858,-0.096,3.373,-0.6231,-0.3914,0.3155,-0.009000000000000001,0.017,-0.048
1670355637.359998,-9.893,-0.038,3.4210000000000003,-0.6254000000000001,-0.3921,0.3118,-0.006,0.013000000000000001,-0.063
1670355637.399998,-9.903,-0.08700000000000001,3.434,-0.6244000000000001,-0.3936,0.3093,0.0,0.008,-0.059000000000000004
1670355637.439998,-9.871,-0.152,3.431,-0.6209,-0.39380000000000004,0.3126,-0.006,0.003,-0.058
1670355637.479998,-9.871,-0.092,3.477,-0.6224000000000001,-0.3927,0.3136,-0.005,0.001,-0.043000000000000003
1670355637.519998,-9.928,-0.11,3.468,-0.6255000000000001,-0.3934,0.31220000000000003,0.005,0.02,-0.052000000000000005
1670355637.559998,-9.909,-0.091,3.466,-0.6233000000000001,-0.3916,0.315,0.0,0.029,-0.044
1670355637.599998,-9.848,-0.113,3.467,-0.6244000000000001,-0.3921,0.3136,0.001,0.026000000000000002,-0.036000000000000004
1670355637.639997,-9.864,-0.08600000000000001,3.431,-0.6256,-0.39180000000000004,0.312,0.013000000000000001,0.025,-0.051000000000000004
1670355637.679997,-9.897,-0.076,3.411,-0.6211,-0.3896,0.3156,0.012,0.022,-0.053
1670355637.719997,-9.893,-0.14100000000000001,3.422,-0.6252,-0.3917,0.3136,0.005,0.019,-0.053
1670355637.759997,-9.856,-0.105,3.418,-0.6233000000000001,-0.392,0.3111,-0.006,0.016,-0.049
1670355637.799997,-9.88,-0.08600000000000001,3.4250000000000003,-0.626,-0.39280000000000004,0.3145,-0.002,0.016,-0.055
1670355637.839997,-9.897,-0.10200000000000001,3.414,-0.6225,-0.3936,0.3108,0.002,0.02,-0.055
1670355637.879997,-9.871,-0.108,3.426,-0.6239,-0.389,0.31420000000000003,0.006,0.022,-0.047
1670355637.919997,-9.894,-0.10400000000000001,3.415,-0.6228,-0.3904,0.315,0.006,0.02,-0.047
1670355637.959997,-9.847,-0.105,3.455,-0.6247,-0.391,0.3129,0.019,0.015,-0.054
1670355637.999997,-9.86,-0.117,3.428,-0.6244000000000001,-0.3917,0.3156,0.009000000000000001,0.009000000000000001,-0.043000000000000003
1670355638.039997,-9.842,-0.114,3.46,-0.6281,-0.3922,0.3144,0.013000000000000001,0.0,-0.045
1670355638.079997,-9.928,-0.073,3.454,-0.6256,-0.3921,0.3155,0.021,0.016,-0.046
1670355638.119997,-9.884,-0.14300000000000002,3.4170000000000003,-0.6242,-0.3932,0.312,0.01,0.024,-0.05
1670355638.159997,-9.823,-0.075,3.431,-0.623,-0.39280000000000004,0.314,0.009000000000000001,0.028,-0.044
1670355638.199997,-9.836,-0.074,3.4090000000000003,-0.6228,-0.3914,0.3146,0.014,0.017,-0.041
1670355638.239997,-9.912,-0.098,3.48,-0.6244000000000001,-0.3942,0.3145,0.025,0.018000000000000002,-0.056
1670355638.279997,-9.91,-0.097,3.434,-0.6255000000000001,-0.3936,0.3131,0.014,0.018000000000000002,-0.055
1670355638.319997,-9.828,-0.14,3.447,-0.6211,-0.3931,0.314,0.002,0.004,-0.056
1670355638.359997,-9.83,-0.047,3.474,-0.6246,-0.39390000000000003,0.3126,0.005,0.0,-0.048
1670355638.399997,-9.883000000000001,-0.156,3.412,-0.6266,-0.39380000000000004,0.3104,0.012,0.008,-0.056
1670355638.439997,-9.838000000000001,-0.055,3.4490000000000003,-0.6236,-0.3927,0.3135,0.009000000000000001,0.018000000000000002,-0.052000000000000005
1670355638.479997,-9.828,-0.082,3.442,-0.6222,-0.3922,0.3158,0.014,0.012,-0.048
1670355638.519997,-9.885,-0.08600000000000001,3.455,-0.6269,-0.3922,0.3116,0.015,0.018000000000000002,-0.051000000000000004
1670355638.5599968,-9.865,-0.099,3.4490000000000003,-0.6237,-0.39030000000000004,0.3156,0.01,0.014,-0.055
1670355638.599997,-9.892,-0.111,3.49,-0.6219,-0.39480000000000004,0.3144,0.003,0.019,-0.05
1670355638.639997,-9.863,-0.09,3.452,-0.6244000000000001,-0.3945,0.3118,-0.004,0.019,-0.055
1670355638.679996,-9.886000000000001,-0.082,3.432,-0.6252,-0.3941,0.31470000000000004,0.003,0.016,-0.054
1670355638.719996,-9.904,-0.101,3.476,-0.6212,-0.3899,0.3161,0.007,0.019,-0.054
1670355638.759996,-9.875,-0.112,3.504,-0.6246,-0.39330000000000004,0.3128,0.002,0.011,-0.056
1670355638.799996,-9.878,-0.113,3.462,-0.6224000000000001,-0.3905,0.31420000000000003,0.003,0.014,-0.048
1670355638.839996,-9.898,-0.077,3.465,-0.6242,-0.394,0.3165,0.005,0.011,-0.052000000000000005
1670355638.879996,-9.871,-0.099,3.457,-0.6255000000000001,-0.3921,0.2886,0.021,0.018000000000000002,-0.051000000000000004
1670355638.919996,-9.887,-0.101,3.4450000000000003,-0.6247,-0.3935,0.327,0.016,0.01,-0.055
1670355638.959996,-9.887,-0.101,3.493,-0.6247,-0.3935,0.327,0.004,0.011,-0.052000000000000005
1670355638.999996,-9.791,-0.11,3.493,-0.6237,-0.3936,0.3145,0.001,0.003,-0.049
1670355639.039996,-9.91,-0.04,3.487,-0.6336,-0.3972,0.3209,0.013000000000000001,0.007,-0.051000000000000004
1670355639.079996,-9.955,-0.08600000000000001,3.523,-0.6236,-0.3941,0.32780000000000004,0.006,0.021,-0.054
1670355639.119996,-9.864,-0.116,3.475,-0.6322,-0.3942,0.3135,0.002,0.018000000000000002,-0.045
1670355639.159996,-9.819,-0.126,3.448,-0.6253000000000001,-0.3952,0.3144,-0.007,0.013000000000000001,-0.041
1670355639.199996,-9.876,-0.052000000000000005,3.492,-0.6215,-0.39180000000000004,0.3164,0.005,0.013000000000000001,-0.056
1670355639.239996,-9.874,-0.066,3.482,-0.6233000000000001,-0.393,0.3151,0.015,0.013000000000000001,-0.059000000000000004
1670355639.279996,-9.872,-0.112,3.48,-0.6247,-0.3936,0.3115,0.002,0.007,-0.058
1670355639.319996,-9.858,-0.131,3.4490000000000003,-0.6254000000000001,-0.3956,0.3123,0.0,0.01,-0.047
1670355639.359996,-9.926,-0.053,3.47,-0.6267,-0.3914,0.31620000000000004,0.006,0.011,-0.048
1670355639.399996,-9.883000000000001,-0.097,3.496,-0.6256,-0.3945,0.3164,0.002,0.022,-0.053
1670355639.439996,-9.829,-0.107,3.511,-0.6263000000000001,-0.39390000000000003,0.31320000000000003,0.006,0.021,-0.049
1670355639.479996,-9.841000000000001,-0.07200000000000001,3.481,-0.6241,-0.3942,0.3163,0.007,0.014,-0.049
1670355639.519996,-9.868,-0.078,3.458,-0.6256,-0.3915,0.3136,0.014,0.011,-0.05
1670355639.559996,-9.872,-0.12,3.492,-0.6266,-0.3942,0.3124,0.0,0.018000000000000002,-0.045
1670355639.5999959,-9.855,-0.106,3.508,-0.6248,-0.3899,0.3131,-0.003,0.019,-0.046
1670355639.639996,-9.856,-0.096,3.481,-0.6263000000000001,-0.3927,0.3145,0.001,0.015,-0.053
1670355639.679996,-9.856,-0.076,3.5020000000000002,-0.6285000000000001,-0.3922,0.3115,0.009000000000000001,0.018000000000000002,-0.057
1670355639.719995,-9.866,-0.126,3.5140000000000002,-0.6269,-0.3912,0.31620000000000004,0.013000000000000001,0.017,-0.052000000000000005
1670355639.759995,-9.841000000000001,-0.116,3.431,-0.6258,-0.39330000000000004,0.31620000000000004,0.002,0.016,-0.049
1670355639.799995,-9.845,-0.083,3.509,-0.6284000000000001,-0.3932,0.3145,0.003,0.016,-0.057
1670355639.839995,-9.849,-0.108,3.465,-0.6245,-0.393,0.3131,0.005,0.018000000000000002,-0.051000000000000004
1670355639.879995,-9.852,-0.107,3.5260000000000002,-0.6272,-0.3934,0.3139,0.005,0.012,-0.051000000000000004
1670355639.919995,-9.858,-0.096,3.496,-0.631,-0.3942,0.31420000000000003,0.005,0.02,-0.054
1670355639.959995,-9.882,-0.10200000000000001,3.474,-0.6259,-0.3921,0.3155,0.015,0.017,-0.05
1670355639.999995,-9.838000000000001,-0.122,3.479,-0.6264000000000001,-0.3922,0.3136,0.008,0.019,-0.055
1670355640.039995,-9.884,-0.11,3.471,-0.6291,-0.39280000000000004,0.312,-0.002,0.017,-0.051000000000000004
1670355640.079995,-9.793000000000001,-0.125,3.479,-0.6272,-0.3947,0.3151,-0.004,0.01,-0.04
1670355640.119995,-9.881,-0.028,3.479,-0.6284000000000001,-0.39080000000000004,0.316,0.015,0.019,-0.039
1670355640.159995,-9.933,-0.127,3.505,-0.6288,-0.3936,0.3148,0.015,0.028,-0.052000000000000005
1670355640.199995,-9.845,-0.08600000000000001,3.467,-0.6294000000000001,-0.394,0.31720000000000004,0.005,0.021,-0.055
1670355640.239995,-9.817,-0.128,3.46,-0.6281,-0.3926,0.3169,-0.005,0.014,-0.037
1670355640.279995,-9.864,-0.064,3.5220000000000002,-0.6312,-0.39280000000000004,0.311,0.011,0.011,-0.053
1670355640.319995,-9.894,-0.07200000000000001,3.5340000000000003,-0.6282,-0.39230000000000004,0.3139,0.012,0.014,-0.061
1670355640.359995,-9.86,-0.135,3.496,-0.628,-0.393,0.3158,-0.001,0.023,-0.053
1670355640.3999949,-9.834,-0.185,3.475,-0.6273000000000001,-0.3926,0.312,-0.03,0.036000000000000004,-0.035
1670355640.439995,-9.897,-0.008,3.477,-0.6288,-0.3945,0.3109,-0.012,0.031,-0.048
1670355640.479995,-9.859,-0.106,3.512,-0.6268,-0.39380000000000004,0.31570000000000004,0.019,0.01,-0.053
1670355640.519995,-9.812,-0.097,3.4290000000000003,-0.6277,-0.39230000000000004,0.314,0.029,0.001,-0.062
1670355640.559995,-9.873,-0.031,3.459,-0.6295000000000001,-0.39280000000000004,0.3123,0.026000000000000002,-0.001,-0.056
1670355640.599995,-9.831,-0.107,3.505,-0.6288,-0.3917,0.3153,0.015,0.017,-0.057
1670355640.6399949,-9.882,-0.09,3.467,-0.6284000000000001,-0.393,0.3155,0.004,0.016,-0.056
1670355640.679995,-9.878,-0.107,3.484,-0.6276,-0.39280000000000004,0.31010000000000004,-0.015,0.022,-0.048
1670355640.719995,-9.848,-0.084,3.495,-0.6261,-0.3936,0.3156,-0.004,0.02,-0.055
1670355640.759995,-9.855,-0.093,3.54,-0.6273000000000001,-0.39280000000000004,0.3159,0.0,0.016,-0.056
1670355640.799995,-9.867,-0.116,3.54,-0.6275000000000001,-0.39330000000000004,0.3109,-0.003,0.011,-0.053
1670355640.839994,-9.837,-0.116,3.504,-0.6281,-0.3911,0.3143,-0.003,0.014,-0.056
1670355640.879994,-9.853,-0.1,3.508,-0.6278,-0.39030000000000004,0.3143,-0.005,0.017,-0.053
1670355640.919994,-9.855,-0.152,3.5020000000000002,-0.6313000000000001,-0.3932,0.3135,-0.006,0.023,-0.05
1670355640.959994,-9.83,-0.117,3.545,-0.6274000000000001,-0.391,0.3164,0.001,0.024,-0.043000000000000003
1670355640.999994,-9.858,-0.128,3.561,-0.6281,-0.3929,0.31320000000000003,-0.001,0.028,-0.048
1670355641.039994,-9.852,-0.08600000000000001,3.505,-0.6296,-0.3899,0.3131,0.0,0.032,-0.041
1670355641.079994,-9.85,-0.129,3.513,-0.6415000000000001,-0.39640000000000003,0.3141,-0.003,0.03,-0.042
1670355641.119994,-9.836,-0.127,3.479,-0.6316,-0.393,0.2944,-0.001,0.028,-0.05
1670355641.159994,-9.836,-0.08600000000000001,3.467,-0.6316,-0.3936,0.2974,0.0,0.014,-0.042
1670355641.1999938,-9.870000000000001,-0.08600000000000001,3.482,-0.6325000000000001,-0.3936,0.2974,-0.002,0.026000000000000002,-0.04
1670355641.239994,-9.931000000000001,-0.085,3.482,-0.6313000000000001,-0.3927,0.32270000000000004,-0.003,0.021,-0.049
1670355641.279994,-9.839,-0.116,3.422,-0.6303000000000001,-0.3917,0.3372,-0.001,0.018000000000000002,-0.054
1670355641.319994,-9.816,-0.093,3.452,-0.6265000000000001,-0.3946,0.30460000000000004,0.004,0.001,-0.051000000000000004
1670355641.359994,-9.867,-0.083,3.486,-0.6288,-0.39330000000000004,0.3241,0.01,0.006,-0.052000000000000005
1670355641.399994,-9.899000000000001,-0.111,3.47,-0.6284000000000001,-0.3924,0.3143,0.013000000000000001,0.008,-0.062
1670355641.4399939,-9.886000000000001,-0.133,3.5,-0.6286,-0.3947,0.31010000000000004,0.006,0.015,-0.053
1670355641.479994,-9.853,-0.161,3.5,-0.6315000000000001,-0.392,0.3129,0.002,0.013000000000000001,-0.042
1670355641.519994,-9.887,-0.076,3.533,-0.6278,-0.391,0.315,0.014,0.02,-0.051000000000000004
1670355641.559994,-9.903,-0.187,3.531,-0.6309,-0.393,0.3171,0.007,0.018000000000000002,-0.05
1670355641.599994,-9.845,-0.115,3.531,-0.6298,-0.39390000000000003,0.3109,0.008,0.023,-0.039
1670355641.639994,-9.836,-0.089,3.501,-0.6273000000000001,-0.3911,0.3125,0.019,0.021,-0.05
1670355641.6799939,-9.864,-0.111,3.498,-0.6276,-0.38980000000000004,0.3136,0.02,0.021,-0.052000000000000005
1670355641.719994,-9.866,-0.108,3.493,-0.6291,-0.3906,0.3133,0.006,0.02,-0.049
1670355641.759994,-9.842,-0.101,3.481,-0.6264000000000001,-0.3957,0.3156,-0.005,0.009000000000000001,-0.052000000000000005
1670355641.799994,-9.824,-0.066,3.439,-0.6285000000000001,-0.3931,0.3144,-0.009000000000000001,-0.004,-0.061
1670355641.839994,-9.876,-0.076,3.468,-0.632,-0.397,0.314,-0.005,-0.005,-0.067
1670355641.879993,-9.86,-0.099,3.491,-0.6272,-0.391,0.31470000000000004,-0.001,0.0,-0.066
1670355641.919993,-9.837,-0.135,3.501,-0.6293000000000001,-0.392,0.3161,0.002,0.002,-0.065
1670355641.959993,-9.827,-0.14300000000000002,3.519,-0.63,-0.3911,0.3134,0.005,0.006,-0.061
1670355641.9999928,-9.844,-0.155,3.551,-0.632,-0.3932,0.3145,0.007,0.02,-0.049
1670355642.039993,-9.853,-0.116,3.585,-0.6293000000000001,-0.3926,0.31670000000000004,0.012,0.028,-0.053
1670355642.079993,-9.827,-0.15,3.573,-0.6291,-0.3917,0.31370000000000003,0.014,0.026000000000000002,-0.051000000000000004
1670355642.119993,-9.819,-0.182,3.586,-0.6281,-0.3931,0.31420000000000003,0.0,0.029,-0.05
1670355642.159993,-9.8,-0.116,3.5260000000000002,-0.6279,-0.3929,0.3164,0.001,0.043000000000000003,-0.055
1670355642.199993,-9.909,-0.073,3.505,-0.631,-0.39380000000000004,0.3141,0.016,0.035,-0.057
1670355642.2399929,-9.84,-0.184,3.473,-0.6317,-0.3894,0.3133,0.008,0.042,-0.054
1670355642.279993,-9.836,-0.106,3.443,-0.6291,-0.3932,0.3154,0.002,0.037,-0.047
1670355642.319993,-9.854000000000001,-0.098,3.431,-0.6306,-0.3921,0.3135,0.008,0.018000000000000002,-0.045
1670355642.359993,-9.888,-0.092,3.486,-0.6276,-0.3924,0.31120000000000003,0.01,0.018000000000000002,-0.055
1670355642.399993,-9.86,-0.123,3.485,-0.6277,-0.393,0.3126,0.009000000000000001,0.008,-0.053
1670355642.439993,-9.815,-0.164,3.547,-0.6291,-0.3925,0.3169,0.003,0.003,-0.057
1670355642.4799929,-9.812,-0.06,3.521,-0.6326,-0.3906,0.3115,0.016,-0.003,-0.055
1670355642.519993,-9.870000000000001,-0.202,3.5220000000000002,-0.6302,-0.3925,0.31370000000000003,0.004,0.01,-0.052000000000000005
1670355642.559993,-9.839,-0.112,3.5100000000000002,-0.6293000000000001,-0.3924,0.314,0.003,0.018000000000000002,-0.052000000000000005
1670355642.599993,-9.806000000000001,-0.099,3.513,-0.631,-0.3919,0.313,0.002,0.019,-0.043000000000000003
1670355642.639993,-9.863,-0.092,3.475,-0.6267,-0.3917,0.3169,0.007,0.021,-0.052000000000000005
1670355642.679993,-9.855,-0.125,3.535,-0.6284000000000001,-0.3921,0.3156,0.005,0.023,-0.053
1670355642.7199929,-9.849,-0.159,3.481,-0.6311,-0.3941,0.3128,-0.004,0.027,-0.057
1670355642.759993,-9.856,-0.117,3.497,-0.6275000000000001,-0.3926,0.3126,-0.007,0.027,-0.051000000000000004
1670355642.799993,-9.839,-0.107,3.468,-0.63,-0.39,0.3171,-0.007,0.021,-0.047
1670355642.839993,-9.848,-0.117,3.496,-0.6281,-0.393,0.311,0.006,0.017,-0.06
1670355642.879993,-9.848,-0.14400000000000002,3.511,-0.6266,-0.39030000000000004,0.3115,0.003,0.016,-0.054
1670355642.919992,-9.845,-0.158,3.479,-0.628,-0.3921,0.31220000000000003,0.0,0.016,-0.058
1670355642.959992,-9.842,-0.129,3.497,-0.6314000000000001,-0.3902,0.3139,0.0,0.013000000000000001,-0.048
1670355642.999992,-9.852,-0.126,3.519,-0.628,-0.3916,0.3124,0.004,0.01,-0.048
1670355643.0399919,-9.839,-0.131,3.523,-0.6273000000000001,-0.3924,0.31620000000000004,0.012,0.017,-0.051000000000000004
1670355643.079992,-9.858,-0.13,3.505,-0.6288,-0.392,0.3139,0.009000000000000001,0.022,-0.057
1670355643.119992,-9.831,-0.167,3.532,-0.6302,-0.39030000000000004,0.3144,0.003,0.021,-0.054
1670355643.159992,-9.887,-0.098,3.561,-0.6286,-0.39330000000000004,0.3206,-0.005,0.015,-0.044
1670355643.199992,-9.918000000000001,-0.114,3.52,-0.6307,-0.3924,0.3164,0.009000000000000001,0.021,-0.047
1670355643.239992,-9.832,-0.145,3.544,-0.6277,-0.3919,0.314,0.001,0.028,-0.061
1670355643.2799919,-9.813,-0.153,3.48,-0.6281,-0.392,0.3148,-0.007,0.022,-0.045
1670355643.319992,-9.85,-0.107,3.462,-0.6303000000000001,-0.3916,0.3206,-0.002,0.01,-0.045
1670355643.359992,-9.876,-0.111,3.481,-0.6291,-0.3921,0.3042,0.006,0.01,-0.058
1670355643.399992,-9.876,-0.146,3.503,-0.6291,-0.3921,0.32280000000000003,0.014,0.006,-0.057
1670355643.439992,-9.869,-0.146,3.503,-0.6307,-0.39280000000000004,0.32280000000000003,0.003,0.002,-0.058
1670355643.479992,-9.853,-0.20400000000000001,3.561,-0.6294000000000001,-0.39180000000000004,0.308,0.002,0.005,-0.047
1670355643.5199919,-9.867,-0.08,3.49,-0.6306,-0.3917,0.31520000000000004,0.007,0.013000000000000001,-0.046
1670355643.559992,-9.879,-0.176,3.517,-0.6297,-0.3919,0.3361,0.002,0.018000000000000002,-0.05
1670355643.599992,-9.841000000000001,-0.154,3.495,-0.6325000000000001,-0.3902,0.3134,0.005,0.018000000000000002,-0.04
1670355643.639992,-9.807,-0.117,3.5460000000000003,-0.6316,-0.3927,0.3114,0.017,0.016,-0.047
1670355643.679992,-9.834,-0.123,3.52,-0.6267,-0.3916,0.3114,0.025,0.012,-0.055
1670355643.719992,-9.849,-0.134,3.5460000000000003,-0.6284000000000001,-0.392,0.3153,0.013000000000000001,0.021,-0.041
1670355643.759992,-9.834,-0.164,3.494,-0.6286,-0.39280000000000004,0.3129,0.004,0.019,-0.048
1670355643.799992,-9.841000000000001,-0.116,3.516,-0.6282,-0.3917,0.31120000000000003,0.002,0.022,-0.054
1670355643.839992,-9.867,-0.107,3.491,-0.6287,-0.3921,0.3144,0.01,0.021,-0.049
1670355643.879992,-9.845,-0.135,3.493,-0.6299,-0.3922,0.312,0.011,0.016,-0.052000000000000005
1670355643.919992,-9.815,-0.106,3.486,-0.6332,-0.39330000000000004,0.3181,0.006,0.01,-0.052000000000000005
1670355643.959991,-9.839,-0.14200000000000002,3.541,-0.6271,-0.3899,0.3144,0.0,0.01,-0.044
1670355643.999991,-9.816,-0.10400000000000001,3.569,-0.6312,-0.3921,0.3148,0.01,0.004,-0.051000000000000004
1670355644.039991,-9.863,-0.11900000000000001,3.586,-0.6317,-0.39380000000000004,0.3128,0.007,0.008,-0.053
1670355644.0799909,-9.839,-0.127,3.524,-0.6283000000000001,-0.39130000000000004,0.3159,0.004,0.01,-0.048
1670355644.119991,-9.856,-0.126,3.552,-0.6313000000000001,-0.3924,0.31570000000000004,0.0,0.013000000000000001,-0.044
1670355644.159991,-9.803,-0.127,3.5460000000000003,-0.6307,-0.3911,0.3114,-0.002,0.013000000000000001,-0.052000000000000005
1670355644.199991,-9.873,-0.093,3.544,-0.6342,-0.3947,0.3156,0.011,0.02,-0.051000000000000004
1670355644.239991,-9.946,-0.138,3.544,-0.6305000000000001,-0.39330000000000004,0.31470000000000004,0.001,0.035,-0.052000000000000005
1670355644.279991,-9.831,-0.161,3.519,-0.6313000000000001,-0.3921,0.316,-0.004,0.021,-0.045
1670355644.3199909,-9.782,-0.121,3.529,-0.6288,-0.39180000000000004,0.3156,-0.015,0.011,-0.038
1670355644.359991,-9.848,-0.077,3.529,-0.6302,-0.3932,0.315,0.007,0.01,-0.059000000000000004
1670355644.399991,-9.862,-0.135,3.511,-0.6297,-0.3919,0.3116,0.012,0.01,-0.056
1670355644.439991,-9.861,-0.149,3.543,-0.6307,-0.3906,0.31770000000000004,0.004,0.017,-0.056
1670355644.479991,-9.859,-0.166,3.592,-0.6302,-0.3914,0.3149,-0.003,0.016,-0.056
1670355644.519991,-9.852,-0.08,3.553,-0.6299,-0.3926,0.3136,0.001,0.017,-0.045
1670355644.559991,-9.874,-0.159,3.569,-0.6287,-0.39280000000000004,0.31420000000000003,0.0,0.019,-0.045
1670355644.599991,-9.774000000000001,-0.112,3.552,-0.6286,-0.39130000000000004,0.314,-0.001,0.021,-0.041
1670355644.639991,-9.805,-0.092,3.528,-0.6327,-0.3936,0.3126,0.008,0.015,-0.05
1670355644.679991,-9.852,-0.099,3.547,-0.6259,-0.39330000000000004,0.3134,0.015,0.018000000000000002,-0.056
1670355644.719991,-9.83,-0.127,3.564,-0.6272,-0.3914,0.3179,0.012,0.021,-0.053
1670355644.759991,-9.808,-0.14100000000000001,3.565,-0.6311,-0.391,0.31120000000000003,-0.003,0.028,-0.054
1670355644.799991,-9.833,-0.11900000000000001,3.517,-0.6305000000000001,-0.391,0.314,0.0,0.023,-0.049
1670355644.839991,-9.846,-0.129,3.529,-0.6294000000000001,-0.3915,0.3176,0.004,0.02,-0.056
1670355644.879991,-9.842,-0.145,3.564,-0.6295000000000001,-0.3915,0.3144,0.0,0.022,-0.056
1670355644.919991,-9.806000000000001,-0.13,3.52,-0.6296,-0.3929,0.315,0.004,0.021,-0.052000000000000005
1670355644.959991,-9.833,-0.134,3.519,-0.6272,-0.3911,0.3155,0.003,0.021,-0.049
1670355644.99999,-9.871,-0.101,3.577,-0.629,-0.39280000000000004,0.3159,0.011,0.026000000000000002,-0.048
1670355645.03999,-9.801,-0.137,3.528,-0.6295000000000001,-0.39180000000000004,0.3128,0.007,0.022,-0.06
1670355645.07999,-9.824,-0.158,3.479,-0.6274000000000001,-0.3946,0.31420000000000003,-0.001,0.017,-0.054
1670355645.1199899,-9.861,-0.10300000000000001,3.547,-0.6292,-0.39130000000000004,0.31370000000000003,-0.001,0.015,-0.046
1670355645.15999,-9.912,-0.083,3.548,-0.6301,-0.39330000000000004,0.3125,0.008,0.024,-0.045
1670355645.19999,-9.794,-0.156,3.482,-0.6271,-0.3924,0.314,0.008,0.037,-0.059000000000000004
1670355645.23999,-9.806000000000001,-0.08700000000000001,3.484,-0.6295000000000001,-0.39280000000000004,0.31620000000000004,0.012,0.02,-0.054
1670355645.27999,-9.846,-0.114,3.5180000000000002,-0.6295000000000001,-0.39130000000000004,0.314,0.012,0.011,-0.052000000000000005
1670355645.31999,-9.864,-0.153,3.561,-0.6292,-0.3899,0.3178,0.019,0.014,-0.058
1670355645.35999,-9.833,-0.14,3.5140000000000002,-0.627,-0.3914,0.3165,0.012,0.008,-0.042
1670355645.39999,-9.856,-0.138,3.556,-0.6281,-0.3916,0.3146,0.0,-0.001,-0.051000000000000004
1670355645.43999,-9.842,-0.055,3.553,-0.6236,-0.39280000000000004,0.3154,0.005,0.006,-0.049
1670355645.47999,-9.88,-0.169,3.515,-0.6282,-0.3925,0.31370000000000003,0.009000000000000001,0.015,-0.049
1670355645.51999,-9.806000000000001,-0.08700000000000001,3.52,-0.6265000000000001,-0.39390000000000003,0.314,0.005,0.023,-0.05
1670355645.55999,-9.813,-0.077,3.552,-0.6286,-0.3935,0.31570000000000004,0.011,0.021,-0.046
1670355645.59999,-9.846,-0.068,3.499,-0.6286,-0.3914,0.32280000000000003,0.012,0.026000000000000002,-0.052000000000000005
1670355645.63999,-9.846,-0.068,3.504,-0.6314000000000001,-0.3914,0.3158,0.012,0.016,-0.055
1670355645.67999,-9.85,-0.112,3.504,-0.6324000000000001,-0.3937,0.3158,0.001,0.021,-0.05
1670355645.71999,-9.828,-0.108,3.5100000000000002,-0.6269,-0.3924,0.3164,-0.004,0.014,-0.052000000000000005
1670355645.75999,-9.824,-0.097,3.52,-0.6278,-0.3914,0.30870000000000003,0.0,0.011,-0.053
1670355645.79999,-9.845,-0.092,3.501,-0.6331,-0.3924,0.3301,0.004,0.014,-0.053
1670355645.83999,-9.842,-0.11900000000000001,3.512,-0.6255000000000001,-0.3927,0.31420000000000003,0.002,0.018000000000000002,-0.055
1670355645.87999,-9.833,-0.105,3.5300000000000002,-0.6263000000000001,-0.3911,0.3145,0.005,0.019,-0.056
1670355645.91999,-9.814,-0.123,3.54,-0.6275000000000001,-0.3927,0.3134,0.006,0.02,-0.046
1670355645.95999,-9.831,-0.132,3.531,-0.6267,-0.3952,0.3161,0.007,0.022,-0.054
1670355645.99999,-9.848,-0.11,3.541,-0.6373,-0.393,0.3209,0.003,0.022,-0.056
1670355646.039989,-9.827,-0.159,3.571,-0.6275000000000001,-0.39330000000000004,0.31620000000000004,0.01,0.018000000000000002,-0.048
1670355646.079989,-9.849,-0.084,3.559,-0.6311,-0.3955,0.3159,0.016,0.024,-0.046
1670355646.119989,-9.937,-0.083,3.532,-0.6266,-0.39230000000000004,0.31420000000000003,0.019,0.033,-0.058
1670355646.1599889,-9.835,-0.159,3.446,-0.641,-0.39580000000000004,0.32270000000000004,0.003,0.028,-0.048
1670355646.199989,-9.814,-0.122,3.462,-0.6302,-0.3922,0.3159,0.002,0.021,-0.044
1670355646.239989,-9.855,-0.064,3.548,-0.6261,-0.3899,0.31520000000000004,0.001,0.009000000000000001,-0.06
1670355646.279989,-9.859,-0.095,3.515,-0.6302,-0.39180000000000004,0.3165,0.009000000000000001,0.009000000000000001,-0.061
1670355646.319989,-9.873,-0.129,3.512,-0.6266,-0.3921,0.31920000000000004,0.004,0.008,-0.058
1670355646.359989,-9.835,-0.171,3.564,-0.626,-0.39130000000000004,0.3174,0.001,0.013000000000000001,-0.061
1670355646.399989,-9.843,-0.068,3.5460000000000003,-0.6291,-0.3927,0.3161,-0.005,0.02,-0.048
1670355646.439989,-9.872,-0.169,3.544,-0.6277,-0.3919,0.31620000000000004,0.001,0.022,-0.051000000000000004
1670355646.479989,-9.831,-0.111,3.537,-0.625,-0.3916,0.3149,0.004,0.021,-0.051000000000000004
1670355646.519989,-9.819,-0.098,3.589,-0.6255000000000001,-0.3921,0.3158,0.008,0.014,-0.05
1670355646.559989,-9.855,-0.135,3.504,-0.6303000000000001,-0.39180000000000004,0.3135,0.009000000000000001,0.015,-0.056
1670355646.599989,-9.873,-0.149,3.523,-0.6267,-0.3909,0.3126,0.002,0.011,-0.054
1670355646.639989,-9.843,-0.123,3.5500000000000003,-0.63,-0.39,0.3184,0.0,0.013000000000000001,-0.052000000000000005
1670355646.679989,-9.839,-0.14100000000000001,3.535,-0.6286,-0.394,0.3094,0.0,0.014,-0.053
1670355646.719989,-9.834,-0.11900000000000001,3.532,-0.6278,-0.38970000000000005,0.3164,0.003,0.011,-0.057
1670355646.759989,-9.843,-0.114,3.531,-0.6306,-0.39280000000000004,0.3159,0.003,0.014,-0.055
1670355646.799989,-9.83,-0.161,3.567,-0.6273000000000001,-0.3914,0.316,0.007,0.018000000000000002,-0.057
1670355646.839989,-9.839,-0.155,3.548,-0.6299,-0.3936,0.3164,0.008,0.019,-0.052000000000000005
1670355646.879989,-9.839,-0.147,3.549,-0.6273000000000001,-0.3904,0.3159,0.007,0.018000000000000002,-0.047
1670355646.919989,-9.819,-0.134,3.568,-0.6286,-0.3935,0.3179,0.01,0.017,-0.04
1670355646.959989,-9.836,-0.151,3.572,-0.6298,-0.3942,0.3165,0.004,0.007,-0.04
1670355646.999989,-9.821,-0.093,3.5740000000000003,-0.6278,-0.38880000000000003,0.3186,0.012,0.006,-0.041
1670355647.039989,-9.889,-0.067,3.497,-0.628,-0.39280000000000004,0.3166,0.026000000000000002,0.018000000000000002,-0.056
1670355647.079988,-9.845,-0.20700000000000002,3.52,-0.6286,-0.3922,0.316,0.011,0.03,-0.054
1670355647.119988,-9.835,-0.08600000000000001,3.508,-0.6294000000000001,-0.3942,0.31870000000000004,-0.004,0.023,-0.046
1670355647.159988,-9.8,-0.08,3.5,-0.6297,-0.3951,0.3156,0.0,0.022,-0.043000000000000003
1670355647.199988,-9.853,-0.085,3.556,-0.6283000000000001,-0.3934,0.3151,0.011,0.017,-0.059000000000000004
1670355647.239988,-9.881,-0.129,3.5380000000000003,-0.6269,-0.3921,0.3165,0.014,0.013000000000000001,-0.049
1670355647.279988,-9.783,-0.17200000000000001,3.565,-0.6314000000000001,-0.3975,0.31980000000000003,0.001,0.01,-0.053
1670355647.319988,-9.806000000000001,-0.069,3.541,-0.6361,-0.3906,0.3175,0.007,0.0,-0.04
1670355647.359988,-9.861,-0.162,3.581,-0.6286,-0.39330000000000004,0.3178,0.009000000000000001,0.007,-0.032
1670355647.399988,-9.822000000000001,-0.08,3.5780000000000003,-0.6277,-0.3922,0.3186,0.006,0.014,-0.036000000000000004
1670355647.439988,-9.804,-0.095,3.5540000000000003,-0.6298,-0.3932,0.3161,0.009000000000000001,0.014,-0.036000000000000004
1670355647.479988,-9.828,-0.056,3.579,-0.6284000000000001,-0.3931,0.3138,0.018000000000000002,0.021,-0.042
1670355647.519988,-9.83,-0.061,3.521,-0.6268,-0.3947,0.3169,0.017,0.028,-0.051000000000000004
1670355647.559988,-9.834,-0.073,3.5260000000000002,-0.6329,-0.3966,0.3129,0.011,0.028,-0.053
1670355647.599988,-9.818,-0.067,3.533,-0.6273000000000001,-0.39540000000000003,0.31570000000000004,-0.011,0.028,-0.049
1670355647.639988,-9.837,-0.063,3.5620000000000003,-0.6274000000000001,-0.3947,0.3169,-0.009000000000000001,0.023,-0.052000000000000005
1670355647.679988,-9.838000000000001,-0.078,3.531,-0.6294000000000001,-0.395,0.3141,-0.009000000000000001,0.025,-0.057
1670355647.719988,-9.849,-0.084,3.547,-0.6269,-0.3925,0.3168,-0.007,0.011,-0.054
1670355647.759988,-9.816,-0.108,3.54,-0.6286,-0.3921,0.3275,-0.008,0.011,-0.057
1670355647.799988,-9.871,-0.108,3.5380000000000003,-0.63,-0.39540000000000003,0.3169,-0.008,0.013000000000000001,-0.06
1670355647.839988,-9.871,-0.116,3.5660000000000003,-0.63,-0.39380000000000004,0.279,0.002,0.014,-0.051000000000000004
1670355647.879988,-9.842,-0.116,3.56,-0.6275000000000001,-0.39380000000000004,0.279,0.0,0.016,-0.052000000000000005
1670355647.919988,-9.795,-0.124,3.56,-0.6284000000000001,-0.3911,0.3166,0.0,0.02,-0.06
1670355647.959988,-9.763,-0.101,3.564,-0.6283000000000001,-0.3921,0.3062,0.007,0.015,-0.056
1670355647.999988,-9.882,-0.077,3.531,-0.6306,-0.39540000000000003,0.3205,0.012,0.021,-0.048
1670355648.039988,-9.858,-0.165,3.5380000000000003,-0.6273000000000001,-0.3947,0.3126,0.0,0.021,-0.05
1670355648.079988,-9.787,-0.083,3.511,-0.6299,-0.3927,0.32430000000000003,-0.003,0.014,-0.049
1670355648.119987,-9.815,-0.093,3.528,-0.6267,-0.3924,0.31720000000000004,0.0,0.012,-0.052000000000000005
1670355648.159987,-9.863,-0.09,3.565,-0.6286,-0.39380000000000004,0.3183,0.005,0.018000000000000002,-0.054
1670355648.199987,-9.845,-0.111,3.575,-0.6288,-0.3955,0.3143,0.005,0.017,-0.055
1670355648.239987,-9.772,-0.167,3.5660000000000003,-0.6344000000000001,-0.39480000000000004,0.3199,0.008,0.017,-0.054
1670355648.279987,-9.743,-0.051000000000000004,3.589,-0.6289,-0.3914,0.3154,0.009000000000000001,0.012,-0.054
1670355648.319987,-9.829,-0.137,3.572,-0.6275000000000001,-0.39780000000000004,0.3286,0.011,0.022,-0.046
1670355648.359987,-9.825000000000001,-0.07100000000000001,3.548,-0.6354000000000001,-0.3946,0.3169,0.003,0.028,-0.041
1670355648.399987,-9.783,-0.051000000000000004,3.58,-0.6271,-0.3926,0.3159,0.011,0.023,-0.048
1670355648.439987,-9.826,-0.076,3.565,-0.6264000000000001,-0.3925,0.3175,0.003,0.024,-0.058
1670355648.479987,-9.859,-0.082,3.532,-0.6272,-0.3956,0.3175,0.0,0.021,-0.059000000000000004
1670355648.519987,-9.827,-0.127,3.529,-0.6279,-0.3936,0.3148,-0.016,0.021,-0.053
1670355648.559987,-9.812,-0.08600000000000001,3.556,-0.6273000000000001,-0.3921,0.3153,-0.005,0.017,-0.054
1670355648.599987,-9.826,-0.12,3.5500000000000003,-0.6285000000000001,-0.39380000000000004,0.3168,-0.001,0.023,-0.055
1670355648.639987,-9.845,-0.122,3.579,-0.625,-0.39080000000000004,0.3158,0.0,0.016,-0.052000000000000005
1670355648.679987,-9.853,-0.115,3.557,-0.6256,-0.3906,0.3163,0.001,0.016,-0.049
1670355648.719987,-9.843,-0.113,3.511,-0.6288,-0.3934,0.3155,0.012,0.016,-0.054
1670355648.759987,-9.816,-0.134,3.5580000000000003,-0.6283000000000001,-0.3931,0.3158,0.015,0.014,-0.053
1670355648.799987,-9.821,-0.137,3.567,-0.6261,-0.3932,0.3189,0.007,0.012,-0.049
1670355648.839987,-9.8,-0.089,3.5740000000000003,-0.6284000000000001,-0.3936,0.31520000000000004,0.012,0.007,-0.047
1670355648.879987,-9.843,-0.063,3.569,-0.626,-0.3904,0.3173,0.017,0.016,-0.042
1670355648.919987,-9.814,-0.147,3.544,-0.6269,-0.39280000000000004,0.31670000000000004,0.007,0.026000000000000002,-0.039
1670355648.959987,-9.799,-0.049,3.541,-0.6272,-0.39380000000000004,0.3156,0.005,0.019,-0.045
1670355648.999987,-9.854000000000001,-0.073,3.5380000000000003,-0.6264000000000001,-0.39430000000000004,0.31820000000000004,0.013000000000000001,0.015,-0.051000000000000004
1670355649.0399868,-9.853,-0.09,3.52,-0.6273000000000001,-0.39330000000000004,0.3178,0.016,0.011,-0.057
1670355649.079987,-9.855,-0.07,3.58,-0.6256,-0.3902,0.3153,0.028,0.025,-0.062
1670355649.119987,-9.764,-0.17500000000000002,3.535,-0.6269,-0.39490000000000003,0.3143,0.022,0.006,-0.07
1670355649.159986,-9.74,-0.062,3.512,-0.6261,-0.39080000000000004,0.31620000000000004,0.008,-0.002,-0.062
1670355649.199986,-9.845,-0.161,3.5340000000000003,-0.6269,-0.39440000000000003,0.31570000000000004,-0.004,0.015,-0.039
1670355649.239986,-9.843,-0.037,3.568,-0.6277,-0.3932,0.3169,0.014,0.018000000000000002,-0.053
1670355649.279986,-9.77,-0.073,3.592,-0.625,-0.39230000000000004,0.3186,0.019,0.02,-0.048
1670355649.319986,-9.836,-0.105,3.568,-0.6339,-0.3967,0.3173,0.016,0.018000000000000002,-0.048
1670355649.359986,-9.857,-0.085,3.537,-0.6317,-0.39030000000000004,0.31620000000000004,0.014,0.02,-0.054
1670355649.399986,-9.836,-0.117,3.5660000000000003,-0.6266,-0.3926,0.3189,-0.006,0.019,-0.052000000000000005
1670355649.439986,-9.815,-0.093,3.5260000000000002,-0.6276,-0.3917,0.3185,-0.005,0.025,-0.048
1670355649.479986,-9.827,-0.065,3.579,-0.6277,-0.3946,0.3155,-0.001,0.016,-0.05
1670355649.519986,-9.848,-0.108,3.583,-0.6287,-0.39390000000000003,0.31720000000000004,0.005,0.018000000000000002,-0.054
1670355649.559986,-9.828,-0.126,3.58,-0.6276,-0.3951,0.3186,0.0,0.019,-0.05
1670355649.599986,-9.836,-0.10300000000000001,3.568,-0.6276,-0.393,0.3189,-0.001,0.019,-0.052000000000000005
1670355649.639986,-9.842,-0.10200000000000001,3.5340000000000003,-0.6266,-0.3922,0.317,0.006,0.019,-0.054
1670355649.679986,-9.821,-0.098,3.569,-0.6284000000000001,-0.38970000000000005,0.3181,0.003,0.018000000000000002,-0.055
1670355649.719986,-9.842,-0.096,3.5660000000000003,-0.6289,-0.3914,0.31670000000000004,0.001,0.02,-0.058
1670355649.759986,-9.783,-0.10400000000000001,3.559,-0.6277,-0.3916,0.31720000000000004,0.004,0.018000000000000002,-0.052000000000000005
1670355649.799986,-9.876,-0.064,3.605,-0.627,-0.3912,0.3161,0.004,0.021,-0.055
1670355649.8399858,-9.899000000000001,-0.122,3.584,-0.629,-0.39440000000000003,0.3144,0.014,0.019,-0.055
1670355649.879986,-9.804,-0.108,3.5820000000000003,-0.6267,-0.3922,0.3141,-0.003,0.032,-0.049
1670355649.919986,-9.791,-0.132,3.508,-0.6275000000000001,-0.39030000000000004,0.3163,-0.01,0.027,-0.053
1670355649.959986,-9.839,-0.082,3.584,-0.6268,-0.39280000000000004,0.3144,-0.001,0.018000000000000002,-0.058
1670355649.999986,-9.865,-0.107,3.585,-0.6295000000000001,-0.3919,0.32580000000000003,0.005,0.009000000000000001,-0.054
1670355650.039986,-9.837,-0.131,3.589,-0.6278,-0.3905,0.3425,0.013000000000000001,0.012,-0.053
1670355650.0799859,-9.837,-0.155,3.567,-0.6278,-0.3905,0.3176,0.009000000000000001,0.005,-0.064
1670355650.119986,-9.819,-0.155,3.561,-0.6288,-0.3924,0.3371,0.009000000000000001,0.001,-0.054
1670355650.159986,-9.883000000000001,-0.081,3.561,-0.6418,-0.39790000000000003,0.3371,0.005,0.014,-0.045
1670355650.199986,-9.845,-0.116,3.576,-0.6305000000000001,-0.3947,0.3225,0.005,0.024,-0.052000000000000005
1670355650.239986,-9.789,-0.11900000000000001,3.577,-0.6331,-0.39390000000000003,0.3173,0.011,0.023,-0.054
1670355650.279985,-9.818,-0.096,3.535,-0.6284000000000001,-0.3947,0.309,0.009000000000000001,0.02,-0.051000000000000004
1670355650.319985,-9.846,-0.113,3.5580000000000003,-0.6377,-0.395,0.3279,0.01,0.022,-0.057
1670355650.359985,-9.827,-0.105,3.589,-0.6295000000000001,-0.3914,0.3169,0.005,0.013000000000000001,-0.054
1670355650.399985,-9.848,-0.117,3.552,-0.6356,-0.3929,0.31720000000000004,-0.002,0.013000000000000001,-0.059000000000000004
1670355650.439985,-9.815,-0.113,3.547,-0.6272,-0.3925,0.3169,0.0,0.01,-0.052000000000000005
1670355650.479985,-9.815,-0.114,3.589,-0.629,-0.3942,0.317,0.006,0.017,-0.057
1670355650.519985,-9.804,-0.134,3.523,-0.6286,-0.3906,0.3149,0.008,0.014,-0.056
1670355650.559985,-9.809000000000001,-0.146,3.5540000000000003,-0.6292,-0.3905,0.31720000000000004,0.007,0.015,-0.053
1670355650.599985,-9.819,-0.128,3.548,-0.6282,-0.3906,0.3173,0.007,0.012,-0.047
1670355650.6399848,-9.857,-0.11800000000000001,3.608,-0.6284000000000001,-0.3941,0.3159,0.01,0.017,-0.049
1670355650.679985,-9.814,-0.123,3.5740000000000003,-0.6273000000000001,-0.3907,0.3155,0.011,0.018000000000000002,-0.056
1670355650.719985,-9.835,-0.149,3.587,-0.6285000000000001,-0.3907,0.3176,0.008,0.02,-0.049
1670355650.759985,-9.768,-0.149,3.581,-0.6278,-0.3914,0.3151,-0.004,0.012,-0.045
1670355650.799985,-9.869,-0.098,3.596,-0.6266,-0.3926,0.31870000000000004,0.011,0.01,-0.035
1670355650.839985,-9.88,-0.105,3.551,-0.6294000000000001,-0.3917,0.3184,0.007,0.019,-0.054
1670355650.8799849,-9.808,-0.107,3.5460000000000003,-0.6295000000000001,-0.3921,0.3156,-0.002,0.018000000000000002,-0.047
1670355650.919985,-9.78,-0.129,3.556,-0.6272,-0.38920000000000005,0.31720000000000004,0.003,0.005,-0.043000000000000003
1670355650.959985,-9.839,-0.096,3.5780000000000003,-0.6273000000000001,-0.393,0.3181,0.014,0.003,-0.049
1670355650.999985,-9.839,-0.109,3.569,-0.6284000000000001,-0.392,0.31870000000000004,0.02,0.008,-0.057
1670355651.039985,-9.841000000000001,-0.125,3.587,-0.6283000000000001,-0.39330000000000004,0.3159,0.008,0.005,-0.048
1670355651.079985,-9.846,-0.148,3.622,-0.626,-0.3917,0.3171,0.003,0.019,-0.053
1670355651.1199849,-9.852,-0.076,3.626,-0.6297,-0.3921,0.31420000000000003,0.007,0.011,-0.042
1670355651.159985,-9.848,-0.11800000000000001,3.6590000000000003,-0.6292,-0.3942,0.3159,0.0,0.019,-0.045
1670355651.199985,-9.802,-0.1,3.598,-0.6278,-0.3922,0.31670000000000004,0.014,0.015,-0.047
1670355651.239985,-9.805,-0.081,3.598,-0.6311,-0.3935,0.3136,0.006,0.023,-0.051000000000000004
1670355651.279985,-9.821,-0.079,3.576,-0.6289,-0.393,0.3178,0.006,0.013000000000000001,-0.045
1670355651.319984,-9.818,-0.108,3.596,-0.6286,-0.39330000000000004,0.3184,0.001,0.018000000000000002,-0.051000000000000004
1670355651.359984,-9.816,-0.10200000000000001,3.608,-0.6288,-0.392,0.3165,-0.002,0.017,-0.051000000000000004
1670355651.399984,-9.816,-0.08,3.568,-0.628,-0.395,0.3173,-0.004,0.013000000000000001,-0.051000000000000004
1670355651.4399838,-9.812,-0.1,3.587,-0.6281,-0.3927,0.3194,-0.005,0.015,-0.049
1670355651.479984,-9.818,-0.11900000000000001,3.617,-0.6279,-0.3921,0.31820000000000004,-0.008,0.014,-0.052000000000000005
1670355651.519984,-9.807,-0.126,3.589,-0.631,-0.3927,0.3163,-0.017,0.013000000000000001,-0.057
1670355651.559984,-9.819,-0.10200000000000001,3.613,-0.6303000000000001,-0.391,0.3209,-0.008,0.014,-0.052000000000000005
1670355651.599984,-9.783,-0.113,3.599,-0.6286,-0.39,0.3186,-0.002,0.02,-0.053
1670355651.639984,-9.837,-0.107,3.587,-0.6297,-0.3919,0.3181,0.005,0.017,-0.051000000000000004
1670355651.6799839,-9.788,-0.132,3.634,-0.6301,-0.3894,0.3179,0.006,0.016,-0.055
1670355651.719984,-9.799,-0.14,3.63,-0.631,-0.3921,0.3184,0.001,0.019,-0.049
1670355651.759984,-9.789,-0.131,3.598,-0.6296,-0.3922,0.3176,-0.003,0.015,-0.052000000000000005
1670355651.799984,-9.864,-0.09,3.5500000000000003,-0.6259,-0.3921,0.3175,0.006,0.034,-0.044
1670355651.839984,-9.821,-0.163,3.569,-0.6302,-0.3907,0.3183,0.0,0.042,-0.053
1670355651.879984,-9.777000000000001,-0.085,3.572,-0.6307,-0.3929,0.3164,-0.005,0.03,-0.045
1670355651.9199839,-9.802,-0.091,3.5300000000000002,-0.6267,-0.3912,0.3185,0.0,0.012,-0.044
1670355651.959984,-9.841000000000001,-0.116,3.621,-0.6281,-0.3921,0.3194,0.007,0.015,-0.053
1670355651.999984,-9.839,-0.126,3.5620000000000003,-0.6291,-0.39530000000000004,0.316,0.009000000000000001,0.011,-0.052000000000000005
1670355652.039984,-9.734,-0.162,3.603,-0.6355000000000001,-0.3924,0.3183,0.0,0.013000000000000001,-0.047
1670355652.079984,-9.729000000000001,-0.083,3.62,-0.6295000000000001,-0.3899,0.3171,-0.008,0.015,-0.047
1670355652.119984,-9.845,-0.162,3.628,-0.63,-0.3921,0.3163,0.003,0.012,-0.047
1670355652.1599839,-9.822000000000001,-0.099,3.581,-0.6277,-0.39390000000000003,0.3176,0.004,0.022,-0.048
1670355652.199984,-9.783,-0.096,3.637,-0.6291,-0.3914,0.3196,0.001,0.016,-0.034
1670355652.239984,-9.81,-0.084,3.5740000000000003,-0.6299,-0.3924,0.3315,0.006,0.019,-0.044
1670355652.279984,-9.829,-0.113,3.585,-0.6419,-0.3985,0.3491,0.015,0.017,-0.06
1670355652.319984,-9.829,-0.113,3.615,-0.6419,-0.3985,0.3257,0.005,0.016,-0.054
1670355652.359983,-9.779,-0.147,3.615,-0.6295000000000001,-0.393,0.3257,-0.004,0.014,-0.043000000000000003
1670355652.399983,-9.842,-0.098,3.619,-0.64,-0.39580000000000004,0.3179,0.0,0.021,-0.055
1670355652.439983,-9.824,-0.117,3.617,-0.6341,-0.3909,0.3282,-0.001,0.023,-0.05
1670355652.4799829,-9.823,-0.121,3.59,-0.6325000000000001,-0.39330000000000004,0.3133,0.011,0.025,-0.057
1670355652.519983,-9.821,-0.125,3.629,-0.6288,-0.3914,0.3178,0.011,0.025,-0.049
1670355652.559983,-9.812,-0.149,3.592,-0.6279,-0.3914,0.3153,0.008,0.021,-0.05
1670355652.599983,-9.812,-0.127,3.609,-0.6288,-0.3927,0.3183,0.007,0.019,-0.045
1670355652.639983,-9.796,-0.088,3.583,-0.6319,-0.3924,0.31720000000000004,0.014,0.016,-0.049
1670355652.679983,-9.78,-0.114,3.585,-0.6315000000000001,-0.3925,0.3179,0.012,0.015,-0.051000000000000004
1670355652.7199829,-9.801,-0.13,3.579,-0.6325000000000001,-0.3907,0.32020000000000004,-0.001,0.018000000000000002,-0.053
1670355652.759983,-9.814,-0.079,3.583,-0.6286,-0.3932,0.3185,0.009000000000000001,0.024,-0.046
1670355652.799983,-9.844,-0.065,3.565,-0.6286,-0.3924,0.315,0.016,0.025,-0.051000000000000004
1670355652.839983,-9.806000000000001,-0.145,3.559,-0.6303000000000001,-0.3945,0.3175,0.011,0.028,-0.041
1670355652.879983,-9.762,-0.11,3.5740000000000003,-0.6258,-0.39490000000000003,0.31820000000000004,-0.01,0.032,-0.037
1670355652.919983,-9.784,-0.07200000000000001,3.573,-0.6303000000000001,-0.39380000000000004,0.3144,0.0,0.007,-0.049
1670355652.9599829,-9.843,-0.098,3.5780000000000003,-0.6275000000000001,-0.3925,0.31720000000000004,0.018000000000000002,-0.01,-0.073
1670355652.999983,-9.84,-0.132,3.624,-0.6297,-0.3921,0.3206,-0.001,-0.01,-0.073
1670355653.039983,-9.687,-0.23500000000000001,3.606,-0.6302,-0.3924,0.31820000000000004,-0.03,-0.03,-0.08600000000000001
1670355653.079983,-9.743,0.11,3.628,-0.6296,-0.39280000000000004,0.318,0.008,-0.006,-0.074
1670355653.119983,-9.816,-0.26,3.62,-0.6297,-0.3909,0.3186,0.007,0.0,-0.052000000000000005
1670355653.159983,-9.797,-0.114,3.6830000000000003,-0.6322,-0.392,0.3183,0.005,0.012,-0.05
1670355653.199983,-9.733,-0.111,3.677,-0.6306,-0.39280000000000004,0.3165,0.012,0.003,-0.057
1670355653.239983,-9.807,-0.14400000000000002,3.661,-0.6261,-0.3924,0.3216,0.02,0.006,-0.056
1670355653.279983,-9.83,-0.14,3.6830000000000003,-0.6317,-0.39130000000000004,0.3191,0.014,0.014,-0.051000000000000004
1670355653.319983,-9.802,-0.162,3.662,-0.6308,-0.39440000000000003,0.3191,0.001,0.021,-0.052000000000000005
1670355653.359983,-9.788,-0.14200000000000002,3.672,-0.632,-0.39080000000000004,0.3225,0.0,0.026000000000000002,-0.059000000000000004
1670355653.399982,-9.795,-0.14100000000000001,3.677,-0.6316,-0.39080000000000004,0.3175,0.004,0.037,-0.049
1670355653.439982,-9.82,-0.148,3.654,-0.6324000000000001,-0.3925,0.31720000000000004,0.006,0.041,-0.049
1670355653.479982,-9.798,-0.14400000000000002,3.63,-0.6331,-0.3919,0.3189,0.011,0.042,-0.051000000000000004
1670355653.5199819,-9.794,-0.138,3.614,-0.6306,-0.3909,0.3191,0.007,0.039,-0.05
1670355653.559982,-9.799,-0.10200000000000001,3.5780000000000003,-0.6338,-0.39390000000000003,0.3191,0.009000000000000001,0.025,-0.051000000000000004
1670355653.599982,-9.817,-0.117,3.5660000000000003,-0.6285000000000001,-0.3935,0.3204,0.012,0.017,-0.056
1670355653.639982,-9.821,-0.124,3.603,-0.6278,-0.3911,0.32,0.018000000000000002,0.008,-0.054
1670355653.679982,-9.802,-0.148,3.611,-0.6317,-0.3924,0.3159,0.01,0.009000000000000001,-0.051000000000000004
1670355653.719982,-9.773,-0.153,3.606,-0.6265000000000001,-0.3914,0.3196,-0.003,0.016,-0.061
1670355653.7599819,-9.838000000000001,-0.105,3.6390000000000002,-0.6288,-0.3909,0.3186,0.003,0.02,-0.054
1670355653.799982,-9.865,-0.137,3.6590000000000003,-0.6318,-0.39490000000000003,0.31570000000000004,0.012,0.025,-0.058
1670355653.839982,-9.787,-0.18,3.648,-0.6302,-0.3935,0.3164,-0.007,0.021,-0.058
1670355653.879982,-9.766,-0.139,3.581,-0.6286,-0.3905,0.319,-0.01,0.012,-0.055
1670355653.919982,-9.811,-0.126,3.6270000000000002,-0.6317,-0.3906,0.3163,0.0,0.006,-0.062
1670355653.959982,-9.804,-0.158,3.648,-0.6296,-0.3909,0.31970000000000004,0.014,0.002,-0.066
1670355653.9999819,-9.848,-0.191,3.66,-0.6322,-0.391,0.31620000000000004,0.015,0.003,-0.052000000000000005
1670355654.039982,-9.799,-0.199,3.666,-0.6329,-0.3914,0.3169,0.013000000000000001,0.009000000000000001,-0.053
1670355654.079982,-9.818,-0.08600000000000001,3.697,-0.6313000000000001,-0.3916,0.3196,0.01,0.009000000000000001,-0.044
1670355654.119982,-9.815,-0.177,3.656,-0.6281,-0.3906,0.31980000000000003,0.015,0.014,-0.052000000000000005
1670355654.159982,-9.783,-0.14200000000000002,3.646,-0.6325000000000001,-0.3924,0.3163,0.012,0.016,-0.05
1670355654.199982,-9.774000000000001,-0.134,3.654,-0.6293000000000001,-0.3925,0.319,0.009000000000000001,0.014,-0.041
1670355654.239982,-9.829,-0.129,3.623,-0.6317,-0.393,0.31880000000000003,0.009000000000000001,0.007,-0.053
1670355654.279982,-9.8,-0.147,3.661,-0.6365000000000001,-0.3947,0.321,0.006,0.013000000000000001,-0.063
1670355654.319982,-9.779,-0.157,3.644,-0.6319,-0.3927,0.3166,0.007,0.017,-0.049
1670355654.359982,-9.773,-0.135,3.669,-0.6283000000000001,-0.3916,0.3209,-0.002,0.02,-0.055
1670355654.399982,-9.787,-0.15,3.608,-0.6364000000000001,-0.3926,0.3194,0.0,0.012,-0.053
1670355654.439981,-9.787,-0.17200000000000001,3.681,-0.6374000000000001,-0.39580000000000004,0.32330000000000003,0.005,0.011,-0.05
1670355654.479981,-9.792,-0.17200000000000001,3.702,-0.6302,-0.3957,0.3083,0.006,0.012,-0.047
1670355654.519981,-9.768,-0.124,3.6470000000000002,-0.631,-0.39130000000000004,0.3083,0.004,0.008,-0.048
1670355654.5599809,-9.768,-0.124,3.634,-0.631,-0.39130000000000004,0.3357,0.01,0.011,-0.056
1670355654.599981,-9.792,-0.14,3.634,-0.633,-0.3926,0.3357,0.011,0.016,-0.058
1670355654.639981,-9.786,-0.159,3.632,-0.6325000000000001,-0.3942,0.3106,0.0,0.018000000000000002,-0.048
1670355654.679981,-9.765,-0.153,3.64,-0.6335000000000001,-0.38930000000000003,0.30610000000000004,0.0,0.018000000000000002,-0.046
1670355654.719981,-9.78,-0.14,3.637,-0.6344000000000001,-0.3929,0.303,-0.005,0.021,-0.053
1670355654.759981,-9.813,-0.121,3.693,-0.6313000000000001,-0.3924,0.3181,0.016,0.018000000000000002,-0.041
1670355654.7999809,-9.844,-0.108,3.644,-0.6305000000000001,-0.39030000000000004,0.3176,0.013000000000000001,0.025,-0.052000000000000005
1670355654.839981,-9.787,-0.179,3.581,-0.6327,-0.3924,0.31670000000000004,-0.008,0.019,-0.045
1670355654.879981,-9.76,-0.156,3.607,-0.6297,-0.3925,0.3179,-0.008,0.009000000000000001,-0.046
1670355654.919981,-9.781,-0.096,3.6670000000000003,-0.6302,-0.391,0.3179,0.006,0.007,-0.056
1670355654.959981,-9.806000000000001,-0.136,3.693,-0.6317,-0.39280000000000004,0.3185,0.01,0.011,-0.052000000000000005
1670355654.999981,-9.802,-0.164,3.714,-0.6311,-0.3916,0.3205,0.003,0.018000000000000002,-0.053
1670355655.039981,-9.74,-0.226,3.677,-0.6317,-0.3924,0.3189,-0.005,0.016,-0.042
1670355655.079981,-9.783,-0.085,3.674,-0.6325000000000001,-0.39330000000000004,0.3191,0.0,0.026000000000000002,-0.047
1670355655.119981,-9.786,-0.17400000000000002,3.638,-0.6319,-0.3931,0.3189,0.003,0.027,-0.047
1670355655.159981,-9.767,-0.134,3.665,-0.6331,-0.3915,0.3205,0.009000000000000001,0.022,-0.048
1670355655.199981,-9.78,-0.10200000000000001,3.645,-0.6441,-0.3976,0.3272,0.013000000000000001,0.023,-0.054
1670355655.239981,-9.786,-0.13,3.682,-0.6322,-0.3904,0.3184,0.009000000000000001,0.013000000000000001,-0.042
1670355655.279981,-9.791,-0.138,3.657,-0.6297,-0.3929,0.32,0.0,0.021,-0.047
1670355655.319981,-9.781,-0.138,3.62,-0.6312,-0.3917,0.31570000000000004,-0.007,0.02,-0.05
1670355655.359981,-9.777000000000001,-0.13,3.65,-0.6304000000000001,-0.3886,0.3181,-0.003,0.016,-0.055
1670355655.399981,-9.794,-0.152,3.634,-0.632,-0.39080000000000004,0.3209,-0.003,0.016,-0.051000000000000004
1670355655.439981,-9.824,-0.153,3.661,-0.6327,-0.3896,0.3196,-0.003,0.011,-0.058
1670355655.399981,-9.783,-0.147,3.672,-0.6338,-0.3931,0.3204,-0.002,0.014,-0.054
1670355655.439981,-9.81,-0.18,3.638,-0.63,-0.39330000000000004,0.3174,0.004,0.012,-0.052000000000000005
1670355655.47998,-9.794,-0.151,3.692,-0.6336,-0.3891,0.3169,0.001,0.016,-0.051000000000000004
1670355655.51998,-9.737,-0.146,3.7,-0.6332,-0.3932,0.31770000000000004,0.004,0.011,-0.05
1670355655.55998,-9.77,-0.168,3.701,-0.6287,-0.3925,0.3181,0.006,0.012,-0.049
1670355655.5999799,-9.845,-0.125,3.737,-0.6329,-0.39280000000000004,0.3186,0.015,0.023,-0.043000000000000003
1670355655.63998,-9.827,-0.16,3.7030000000000003,-0.6321,-0.3936,0.3154,0.006,0.029,-0.047
1670355655.67998,-9.724,-0.155,3.64,-0.6303000000000001,-0.39030000000000004,0.317,-0.006,0.03,-0.046
1670355655.71998,-9.765,-0.14,3.616,-0.6316,-0.3905,0.323,-0.005,0.017,-0.044
1670355655.75998,-9.821,-0.13,3.716,-0.6334000000000001,-0.3912,0.3195,0.007,0.018000000000000002,-0.054
1670355655.79998,-9.776,-0.135,3.6590000000000003,-0.6299,-0.3922,0.31970000000000004,0.009000000000000001,0.014,-0.055
1670355655.83998,-9.786,-0.171,3.677,-0.63,-0.3914,0.3199,0.0,0.017,-0.052000000000000005
1670355655.87998,-9.785,-0.133,3.644,-0.6318,-0.3925,0.3178,-0.002,0.016,-0.052000000000000005
1670355655.91998,-9.821,-0.126,3.69,-0.6313000000000001,-0.38930000000000003,0.3178,0.006,0.015,-0.053
1670355655.95998,-9.798,-0.136,3.69,-0.6306,-0.3899,0.32280000000000003,0.004,0.025,-0.05
1670355655.99998,-9.728,-0.15,3.629,-0.6325000000000001,-0.3919,0.3155,0.004,0.019,-0.04
1670355656.03998,-9.776,-0.116,3.632,-0.6314000000000001,-0.3902,0.3159,0.007,0.021,-0.052000000000000005
1670355656.07998,-9.792,-0.134,3.656,-0.6313000000000001,-0.3902,0.3215,0.016,0.016,-0.055
1670355656.11998,-9.777000000000001,-0.147,3.6630000000000003,-0.6311,-0.3919,0.318,0.006,0.019,-0.053
1670355656.15998,-9.772,-0.122,3.676,-0.6335000000000001,-0.392,0.32,0.002,0.018000000000000002,-0.048
1670355656.19998,-9.778,-0.155,3.656,-0.6323000000000001,-0.391,0.3209,0.002,0.012,-0.049
1670355656.23998,-9.790000000000001,-0.114,3.6550000000000002,-0.6325000000000001,-0.3924,0.3175,0.004,0.02,-0.049
1670355656.27998,-9.783,-0.157,3.66,-0.6333000000000001,-0.3935,0.31980000000000003,0.003,0.02,-0.058
1670355656.31998,-9.755,-0.148,3.6750000000000003,-0.6311,-0.3917,0.32,0.001,0.016,-0.052000000000000005
1670355656.35998,-9.811,-0.153,3.652,-0.6349,-0.3922,0.3171,0.007,0.019,-0.049
1670355656.39998,-9.751,-0.168,3.665,-0.6336,-0.3922,0.3239,0.005,0.015,-0.044
1670355656.43998,-9.841000000000001,-0.14100000000000001,3.719,-0.6299,-0.393,0.3245,0.015,0.006,-0.046
1670355656.47998,-9.849,-0.131,3.72,-0.6323000000000001,-0.3925,0.3184,0.026000000000000002,0.014,-0.048
1670355656.519979,-9.76,-0.159,3.656,-0.6331,-0.39080000000000004,0.319,0.016,0.022,-0.05
1670355656.559979,-9.738,-0.128,3.624,-0.633,-0.39230000000000004,0.3195,0.01,0.015,-0.047
1670355656.599979,-9.81,-0.098,3.684,-0.636,-0.39,0.31120000000000003,0.012,0.007,-0.048
1670355656.639979,-9.811,-0.125,3.672,-0.632,-0.3935,0.3105,0.013000000000000001,0.011,-0.055
1670355656.679979,-9.811,-0.14200000000000002,3.672,-0.632,-0.39330000000000004,0.3285,0.001,0.016,-0.052000000000000005
1670355656.719979,-9.787,-0.14200000000000002,3.672,-0.6322,-0.39330000000000004,0.3285,0.0,0.006,-0.062
1670355656.759979,-9.808,-0.156,3.681,-0.6316,-0.3941,0.3065,0.004,0.0,-0.049
1670355656.799979,-9.84,-0.091,3.74,-0.6341,-0.39330000000000004,0.3174,0.003,0.01,-0.051000000000000004
1670355656.839979,-9.815,-0.146,3.713,-0.6318,-0.3922,0.31,0.001,0.021,-0.053
1670355656.879979,-9.75,-0.113,3.6550000000000002,-0.6342,-0.39180000000000004,0.3174,0.01,0.022,-0.054
1670355656.919979,-9.774000000000001,-0.134,3.708,-0.6331,-0.3905,0.3201,0.014,0.019,-0.053
1670355656.959979,-9.777000000000001,-0.13,3.719,-0.6341,-0.39130000000000004,0.3205,0.016,0.016,-0.055
1670355656.999979,-9.78,-0.161,3.696,-0.6337,-0.3936,0.3189,0.005,0.015,-0.051000000000000004
1670355657.039979,-9.785,-0.125,3.666,-0.6342,-0.3902,0.3175,-0.002,0.016,-0.051000000000000004
1670355657.079979,-9.77,-0.14,3.701,-0.6346,-0.3926,0.31970000000000004,0.0,0.013000000000000001,-0.054
1670355657.119979,-9.768,-0.12,3.664,-0.6298,-0.3916,0.32330000000000003,0.009000000000000001,0.011,-0.05
1670355657.159979,-9.806000000000001,-0.10400000000000001,3.682,-0.6324000000000001,-0.3924,0.319,0.009000000000000001,0.021,-0.051000000000000004
1670355657.199979,-9.792,-0.129,3.732,-0.6346,-0.394,0.3261,0.007,0.016,-0.058
1670355657.239979,-9.758000000000001,-0.161,3.692,-0.6305000000000001,-0.3941,0.3194,-0.003,0.017,-0.06
1670355657.279979,-9.790000000000001,-0.158,3.672,-0.6454000000000001,-0.3955,0.3272,-0.006,0.018000000000000002,-0.045
1670355657.319979,-9.72,-0.126,3.74,-0.6341,-0.3935,0.3191,-0.001,0.022,-0.056
1670355657.359979,-9.791,-0.074,3.661,-0.6321,-0.3924,0.32,0.013000000000000001,0.016,-0.063
1670355657.399979,-9.795,-0.246,3.676,-0.6325000000000001,-0.3896,0.31930000000000003,0.008,0.027,-0.056
1670355657.439979,-9.769,-0.121,3.6630000000000003,-0.6377,-0.3957,0.31930000000000003,-0.001,0.025,-0.047
1670355657.479979,-9.767,-0.169,3.657,-0.6391,-0.3905,0.31670000000000004,-0.007,0.024,-0.055
1670355657.519979,-9.796,-0.138,3.668,-0.6306,-0.3917,0.32220000000000004,0.009000000000000001,0.021,-0.064
1670355657.559978,-9.812,-0.158,3.686,-0.6317,-0.3922,0.3184,0.005,0.019,-0.055
1670355657.599978,-9.732,-0.213,3.696,-0.6333000000000001,-0.3902,0.31720000000000004,0.002,0.008,-0.065
1670355657.639978,-9.721,-0.124,3.669,-0.6338,-0.39380000000000004,0.3178,0.011,0.013000000000000001,-0.052000000000000005
1670355657.679978,-9.785,-0.227,3.6510000000000002,-0.6356,-0.3947,0.3164,0.007,0.014,-0.05
1670355657.719978,-9.775,-0.132,3.6950000000000003,-0.6323000000000001,-0.3934,0.3181,0.008,0.021,-0.052000000000000005
1670355657.759978,-9.771,-0.14200000000000002,3.653,-0.6317,-0.38980000000000004,0.3204,0.01,0.016,-0.043000000000000003
1670355657.799978,-9.779,-0.135,3.649,-0.6319,-0.3917,0.3183,0.015,0.013000000000000001,-0.054
1670355657.839978,-9.804,-0.163,3.654,-0.6332,-0.3929,0.3181,0.01,0.015,-0.058
1670355657.879978,-9.783,-0.177,3.665,-0.6329,-0.3922,0.3195,-0.004,0.017,-0.048
1670355657.919978,-9.787,-0.17200000000000001,3.6910000000000003,-0.6331,-0.3937,0.3175,-0.007,0.02,-0.04
1670355657.959978,-9.782,-0.156,3.673,-0.6335000000000001,-0.3907,0.31670000000000004,0.007,0.017,-0.045
1670355657.999978,-9.776,-0.162,3.725,-0.6306,-0.3927,0.3195,0.012,0.018000000000000002,-0.043000000000000003
1670355658.039978,-9.779,-0.14100000000000001,3.646,-0.6337,-0.3925,0.3189,0.017,0.016,-0.046
1670355658.079978,-9.775,-0.154,3.623,-0.6326,-0.3925,0.3186,0.012,0.012,-0.045
1670355658.119978,-9.772,-0.149,3.649,-0.6311,-0.3917,0.3186,0.012,0.015,-0.046
1670355658.159978,-9.765,-0.161,3.656,-0.6305000000000001,-0.3907,0.32020000000000004,0.007,0.018000000000000002,-0.047
1670355658.199978,-9.74,-0.12,3.69,-0.6347,-0.3906,0.3184,0.009000000000000001,0.009000000000000001,-0.048
1670355658.239978,-9.85,-0.082,3.6670000000000003,-0.6311,-0.3911,0.32030000000000003,0.019,0.019,-0.041
1670355658.279978,-9.788,-0.223,3.666,-0.6302,-0.3919,0.3176,0.014,0.025,-0.046
1670355658.319978,-9.726,-0.064,3.6310000000000002,-0.6314000000000001,-0.39330000000000004,0.3201,0.01,0.025,-0.046
1670355658.359978,-9.76,-0.12,3.661,-0.6317,-0.3927,0.3201,0.01,0.013000000000000001,-0.038
1670355658.399978,-9.797,-0.095,3.668,-0.6338,-0.3935,0.3195,0.008,0.013000000000000001,-0.055
1670355658.439978,-9.828,-0.11800000000000001,3.682,-0.6314000000000001,-0.39380000000000004,0.3189,0.019,0.014,-0.049
1670355658.4799778,-9.73,-0.179,3.72,-0.6353,-0.3914,0.32070000000000004,-0.003,0.015,-0.049
1670355658.519978,-9.733,-0.078,3.698,-0.634,-0.3926,0.3191,-0.003,0.015,-0.051000000000000004
1670355658.559978,-9.779,-0.19,3.69,-0.6311,-0.3926,0.32080000000000003,-0.004,0.019,-0.053
1670355658.599977,-9.772,-0.099,3.698,-0.6336,-0.392,0.3211,0.002,0.029,-0.04
1670355658.639977,-9.733,-0.084,3.6430000000000002,-0.6325000000000001,-0.3911,0.32,0.004,0.027,-0.04
1670355658.679977,-9.801,-0.11800000000000001,3.677,-0.6332,-0.3922,0.31720000000000004,0.01,0.023,-0.053
1670355658.719977,-9.797,-0.099,3.623,-0.632,-0.3911,0.3206,0.009000000000000001,0.023,-0.061
1670355658.759977,-9.803,-0.122,3.619,-0.6304000000000001,-0.3912,0.3186,-0.001,0.024,-0.058
1670355658.799977,-9.782,-0.11,3.648,-0.6316,-0.3914,0.31720000000000004,-0.011,0.014,-0.051000000000000004
1670355658.839977,-9.782,-0.12,3.644,-0.6335000000000001,-0.3919,0.3226,-0.008,0.016,-0.058
1670355658.879977,-9.782,-0.134,3.649,-0.6335000000000001,-0.3904,0.3376,-0.005,0.017,-0.057
1670355658.919977,-9.781,-0.134,3.666,-0.6325000000000001,-0.3904,0.3376,-0.004,0.018000000000000002,-0.055
1670355658.959977,-9.756,-0.14200000000000002,3.666,-0.6357,-0.3925,0.3327,-0.001,0.014,-0.052000000000000005
1670355658.999977,-9.783,-0.149,3.6390000000000002,-0.6303000000000001,-0.39080000000000004,0.3272,0.005,0.016,-0.056
1670355659.039977,-9.795,-0.133,3.66,-0.6308,-0.3929,0.3169,0.007,0.014,-0.051000000000000004
1670355659.079977,-9.781,-0.167,3.672,-0.6371,-0.3946,0.3068,0.008,0.007,-0.05
1670355659.119977,-9.775,-0.165,3.6910000000000003,-0.6338,-0.3905,0.3068,0.005,0.006,-0.046
1670355659.159977,-9.772,-0.149,3.722,-0.6316,-0.392,0.32030000000000003,0.011,0.016,-0.049
1670355659.199977,-9.841000000000001,-0.122,3.715,-0.6344000000000001,-0.3924,0.3176,0.012,0.024,-0.048
1670355659.239977,-9.751,-0.199,3.641,-0.6306,-0.391,0.3171,-0.004,0.027,-0.041
1670355659.2799768,-9.712,-0.117,3.633,-0.6364000000000001,-0.3924,0.3236,-0.002,0.02,-0.043000000000000003
1670355659.319977,-9.782,-0.095,3.685,-0.6325000000000001,-0.38970000000000005,0.31470000000000004,0.007,0.016,-0.055
1670355659.359977,-9.832,-0.128,3.6830000000000003,-0.6446000000000001,-0.39830000000000004,0.32580000000000003,0.013000000000000001,0.014,-0.055
1670355659.399977,-9.785,-0.146,3.672,-0.6296,-0.38920000000000005,0.32020000000000004,0.0,0.012,-0.049
1670355659.439977,-9.736,-0.191,3.686,-0.6377,-0.3919,0.32170000000000004,-0.006,0.01,-0.045
1670355659.479977,-9.777000000000001,-0.101,3.701,-0.6305000000000001,-0.3935,0.3189,0.009000000000000001,0.017,-0.055
1670355659.5199769,-9.805,-0.195,3.69,-0.6297,-0.3919,0.3267,0.007,0.029,-0.047
1670355659.559977,-9.772,-0.126,3.696,-0.6348,-0.39280000000000004,0.3184,0.002,0.026000000000000002,-0.039
1670355659.599977,-9.764,-0.11900000000000001,3.681,-0.6325000000000001,-0.3925,0.3211,0.011,0.026000000000000002,-0.052000000000000005
1670355659.639977,-9.786,-0.134,3.682,-0.6328,-0.39180000000000004,0.32,0.021,0.021,-0.058
1670355659.679977,-9.797,-0.146,3.646,-0.632,-0.3927,0.3206,0.0,0.019,-0.049
1670355659.719976,-9.773,-0.156,3.666,-0.6331,-0.3912,0.31670000000000004,0.001,0.015,-0.043000000000000003
1670355659.759976,-9.797,-0.125,3.696,-0.6342,-0.3919,0.32180000000000003,0.005,0.005,-0.053
1670355659.799976,-9.8,-0.117,3.6830000000000003,-0.6306,-0.3905,0.3194,0.007,0.018000000000000002,-0.052000000000000005
1670355659.839976,-9.785,-0.149,3.668,-0.6303000000000001,-0.3941,0.3189,0.013000000000000001,0.019,-0.054
1670355659.879976,-9.781,-0.139,3.6830000000000003,-0.6314000000000001,-0.3911,0.3201,0.017,0.021,-0.047
1670355659.919976,-9.814,-0.14400000000000002,3.6470000000000002,-0.6319,-0.39130000000000004,0.3183,0.012,0.019,-0.051000000000000004
1670355659.959976,-9.789,-0.129,3.672,-0.6338,-0.3931,0.3164,0.009000000000000001,0.019,-0.044
1670355659.999976,-9.789,-0.127,3.654,-0.6329,-0.3929,0.31920000000000004,0.011,0.016,-0.048
1670355660.039976,-9.773,-0.14100000000000001,3.673,-0.6299,-0.3922,0.3165,0.011,0.013000000000000001,-0.05
1670355660.0799758,-9.752,-0.074,3.716,-0.6313000000000001,-0.3932,0.31870000000000004,0.004,0.017,-0.049
1670355660.119976,-9.853,-0.067,3.669,-0.6324000000000001,-0.3927,0.3179,0.014,0.023,-0.045
1670355660.159976,-9.756,-0.167,3.644,-0.6286,-0.3922,0.31880000000000003,0.0,0.029,-0.047
1670355660.199976,-9.728,-0.074,3.654,-0.6316,-0.3919,0.3186,0.002,0.022,-0.052000000000000005
1670355660.239976,-9.779,-0.081,3.676,-0.6306,-0.39330000000000004,0.31930000000000003,0.003,0.015,-0.058
1670355660.279976,-9.819,-0.107,3.669,-0.6307,-0.39330000000000004,0.3191,0.013000000000000001,0.014,-0.054
1670355660.3199759,-9.791,-0.14300000000000002,3.693,-0.6313000000000001,-0.3935,0.3181,0.008,0.008,-0.047
1670355660.359976,-9.763,-0.179,3.692,-0.6326,-0.39080000000000004,0.3195,0.002,0.002,-0.056
1670355660.399976,-9.788,-0.065,3.686,-0.6339,-0.393,0.323,0.013000000000000001,0.004,-0.049
1670355660.439976,-9.81,-0.17400000000000002,3.72,-0.634,-0.39330000000000004,0.31980000000000003,0.007,0.011,-0.045
1670355660.479976,-9.744,-0.11,3.6870000000000003,-0.6314000000000001,-0.3942,0.3191,0.01,0.024,-0.049
1670355660.519976,-9.753,-0.077,3.657,-0.6325000000000001,-0.3904,0.3173,0.009000000000000001,0.019,-0.048
1670355660.5599759,-9.804,-0.105,3.668,-0.6309,-0.39380000000000004,0.3215,0.02,0.022,-0.059000000000000004
1670355660.599976,-9.803,-0.125,3.666,-0.6315000000000001,-0.39280000000000004,0.31870000000000004,0.009000000000000001,0.019,-0.056
1670355660.639976,-9.76,-0.11900000000000001,3.6670000000000003,-0.6313000000000001,-0.39080000000000004,0.3215,-0.001,0.02,-0.047
1670355660.679976,-9.765,-0.101,3.688,-0.6318,-0.3919,0.3191,0.0,0.011,-0.048
1670355660.719976,-9.795,-0.10400000000000001,3.705,-0.6319,-0.3909,0.318,0.003,0.012,-0.06
1670355660.759975,-9.792,-0.135,3.6950000000000003,-0.6338,-0.39280000000000004,0.32070000000000004,0.001,0.012,-0.054
1670355660.799975,-9.78,-0.116,3.717,-0.6334000000000001,-0.391,0.31920000000000004,0.008,0.016,-0.054
1670355660.839975,-9.765,-0.134,3.702,-0.6358,-0.39280000000000004,0.3186,0.0,0.015,-0.049
1670355660.879975,-9.765,-0.129,3.715,-0.6312,-0.3931,0.31970000000000004,0.003,0.018000000000000002,-0.047
1670355660.919975,-9.781,-0.106,3.7800000000000002,-0.6337,-0.3946,0.3186,0.003,0.021,-0.052000000000000005
1670355660.959975,-9.758000000000001,-0.108,3.68,-0.6333000000000001,-0.394,0.32330000000000003,0.009000000000000001,0.019,-0.053
1670355660.999975,-9.778,-0.10400000000000001,3.6750000000000003,-0.6325000000000001,-0.3945,0.31930000000000003,0.008,0.018000000000000002,-0.052000000000000005
1670355661.039975,-9.754,-0.116,3.678,-0.631,-0.3924,0.32,0.002,0.022,-0.048
1670355661.079975,-9.77,-0.112,3.648,-0.6336,-0.3957,0.3265,0.008,0.021,-0.054
1670355661.1199749,-9.782,-0.17,3.689,-0.6325000000000001,-0.3934,0.3256,0.002,0.016,-0.06
1670355661.159975,-9.782,-0.17,3.6950000000000003,-0.6325000000000001,-0.3934,0.3166,0.0,0.01,-0.054
1670355661.199975,-9.824,-0.07100000000000001,3.6950000000000003,-0.632,-0.392,0.3166,0.016,0.01,-0.046
1670355661.239975,-9.843,-0.084,3.718,-0.6362,-0.39330000000000004,0.3034,0.01,0.024,-0.062
1670355661.279975,-9.749,-0.176,3.65,-0.6474000000000001,-0.3941,0.3331,0.004,0.018000000000000002,-0.054
1670355661.319975,-9.752,-0.11900000000000001,3.6670000000000003,-0.6316,-0.39230000000000004,0.31370000000000003,0.002,0.014,-0.047
1670355661.3599749,-9.76,-0.07,3.708,-0.638,-0.39380000000000004,0.3211,0.013000000000000001,0.014,-0.059000000000000004
1670355661.399975,-9.794,-0.111,3.693,-0.632,-0.3922,0.31920000000000004,0.008,0.014,-0.06
1670355661.439975,-9.803,-0.14400000000000002,3.698,-0.6458,-0.39630000000000004,0.3312,0.003,0.011,-0.052000000000000005
1670355661.479975,-9.745000000000001,-0.19,3.719,-0.6331,-0.3932,0.3189,-0.001,0.021,-0.048
1670355661.519975,-9.753,0.008,3.717,-0.6378,-0.39480000000000004,0.3211,0.025,0.028,-0.065
1670355661.559975,-9.776,-0.20500000000000002,3.6950000000000003,-0.6333000000000001,-0.39280000000000004,0.322,0.022,0.015,-0.049
1670355661.5999749,-9.758000000000001,-0.138,3.677,-0.6342,-0.3941,0.3245,-0.001,0.009000000000000001,-0.037
1670355661.639975,-9.755,-0.09,3.672,-0.6335000000000001,-0.39530000000000004,0.318,-0.001,0.017,-0.043000000000000003
1670355661.679975,-9.798,-0.044,3.6550000000000002,-0.6346,-0.3941,0.3186,0.015,0.019,-0.065
1670355661.719975,-9.773,-0.074,3.6790000000000003,-0.6321,-0.39280000000000004,0.3211,0.004,0.017,-0.054
1670355661.759975,-9.774000000000001,-0.14300000000000002,3.6950000000000003,-0.6351,-0.39530000000000004,0.3195,-0.009000000000000001,0.013000000000000001,-0.045
1670355661.799974,-9.742,-0.11900000000000001,3.681,-0.6317,-0.39440000000000003,0.32120000000000004,-0.008,0.015,-0.053
1670355661.839974,-9.771,-0.099,3.682,-0.6325000000000001,-0.392,0.3195,-0.002,0.019,-0.06
1670355661.879974,-9.761000000000001,-0.137,3.743,-0.6322,-0.39030000000000004,0.3151,0.003,0.019,-0.058
1670355661.9199739,-9.767,-0.124,3.7110000000000003,-0.6315000000000001,-0.3924,0.3195,0.008,0.018000000000000002,-0.056
1670355661.959974,-9.766,-0.158,3.689,-0.6327,-0.39080000000000004,0.3211,0.002,0.017,-0.052000000000000005
1670355661.999974,-9.763,-0.128,3.702,-0.632,-0.39680000000000004,0.3191,0.005,0.014,-0.046
1670355662.039974,-9.763,-0.126,3.697,-0.6328,-0.3932,0.3211,0.003,0.018000000000000002,-0.051000000000000004
1670355662.079974,-9.790000000000001,-0.122,3.71,-0.6318,-0.3927,0.323,0.005,0.018000000000000002,-0.042
1670355662.119974,-9.795,-0.105,3.6950000000000003,-0.6327,-0.3925,0.3196,0.004,0.02,-0.044
1670355662.1599739,-9.774000000000001,-0.117,3.669,-0.6306,-0.3927,0.32030000000000003,0.008,0.015,-0.048
1670355662.199974,-9.767,-0.12,3.713,-0.6302,-0.3946,0.32130000000000003,0.007,0.017,-0.051000000000000004
1670355662.239974,-9.782,-0.14100000000000001,3.6870000000000003,-0.6328,-0.3927,0.32020000000000004,0.0,0.011,-0.038
1670355662.279974,-9.804,-0.08,3.7110000000000003,-0.6302,-0.3922,0.31930000000000003,0.009000000000000001,0.014,-0.043000000000000003
1670355662.319974,-9.84,-0.059000000000000004,3.7070000000000003,-0.6327,-0.3946,0.3194,0.021,0.017,-0.048
1670355662.359974,-9.737,-0.156,3.6990000000000003,-0.6333000000000001,-0.39180000000000004,0.31970000000000004,0.007,0.017,-0.048
1670355662.3999739,-9.724,-0.121,3.641,-0.631,-0.3916,0.32020000000000004,-0.001,0.018000000000000002,-0.046
1670355662.439974,-9.774000000000001,-0.067,3.717,-0.6309,-0.3922,0.32170000000000004,0.002,0.011,-0.05
1670355662.479974,-9.771,-0.078,3.746,-0.6311,-0.3926,0.32380000000000003,0.016,0.019,-0.057
1670355662.519974,-9.77,-0.135,3.716,-0.6322,-0.392,0.3221,0.005,0.018000000000000002,-0.051000000000000004
1670355662.559974,-9.715,-0.171,3.704,-0.6338,-0.39480000000000004,0.3226,-0.012,0.009000000000000001,-0.054
1670355662.599974,-9.775,-0.043000000000000003,3.669,-0.637,-0.3947,0.32080000000000003,0.002,0.01,-0.05
1670355662.6399739,-9.768,-0.161,3.726,-0.6326,-0.393,0.3216,0.001,0.021,-0.048
1670355662.679974,-9.761000000000001,-0.10200000000000001,3.732,-0.6329,-0.393,0.3231,0.001,0.022,-0.051000000000000004
1670355662.719974,-9.749,-0.08600000000000001,3.6990000000000003,-0.6297,-0.393,0.3224,0.0,0.02,-0.047
1670355662.759974,-9.775,-0.088,3.724,-0.6316,-0.3922,0.3184,0.014,0.02,-0.056
1670355662.799974,-9.777000000000001,-0.111,3.654,-0.633,-0.3936,0.3219,0.01,0.022,-0.057
1670355662.839973,-9.757,-0.123,3.714,-0.6336,-0.3926,0.3206,0.0,0.017,-0.046
1670355662.879973,-9.767,-0.10200000000000001,3.677,-0.6328,-0.39330000000000004,0.31870000000000004,-0.01,0.015,-0.052000000000000005
1670355662.919973,-9.785,-0.12,3.71,-0.6311,-0.3945,0.32230000000000003,-0.007,0.023,-0.059000000000000004
1670355662.9599729,-9.771,-0.125,3.704,-0.6319,-0.39380000000000004,0.32270000000000004,0.0,0.015,-0.052000000000000005
1670355662.999973,-9.789,-0.127,3.72,-0.631,-0.3932,0.3186,-0.003,0.022,-0.055
1670355663.039973,-9.769,-0.124,3.736,-0.629,-0.3937,0.3216,0.0,0.02,-0.055
1670355663.079973,-9.772,-0.11900000000000001,3.73,-0.6323000000000001,-0.3955,0.32030000000000003,-0.001,0.023,-0.054
1670355663.119973,-9.779,-0.127,3.712,-0.6325000000000001,-0.3905,0.3204,0.009000000000000001,0.019,-0.051000000000000004
1670355663.159973,-9.773,-0.11,3.692,-0.6366,-0.393,0.323,0.001,0.022,-0.049
1670355663.1999729,-9.758000000000001,-0.114,3.729,-0.6295000000000001,-0.3935,0.32230000000000003,0.002,0.022,-0.052000000000000005
1670355663.239973,-9.752,-0.136,3.662,-0.6319,-0.39580000000000004,0.31970000000000004,0.001,0.02,-0.049
1670355663.279973,-9.804,-0.08,3.6950000000000003,-0.6295000000000001,-0.3952,0.3211,-0.005,0.014,-0.052000000000000005
1670355663.319973,-9.848,-0.108,3.6910000000000003,-0.6315000000000001,-0.3952,0.3224,0.009000000000000001,0.022,-0.052000000000000005
1670355663.359973,-9.737,-0.127,3.674,-0.636,-0.3936,0.3301,-0.001,0.031,-0.052000000000000005
1670355663.399973,-9.737,-0.115,3.65,-0.636,-0.3935,0.32330000000000003,-0.005,0.022,-0.051000000000000004
1670355663.4399729,-9.724,-0.115,3.65,-0.6347,-0.3935,0.32330000000000003,-0.002,0.011,-0.045
1670355663.479973,-9.798,-0.10400000000000001,3.696,-0.6333000000000001,-0.3937,0.3393,0.01,0.02,-0.052000000000000005
1670355663.519973,-9.788,-0.111,3.723,-0.6471,-0.39740000000000003,0.3216,0.007,0.017,-0.051000000000000004
1670355663.559973,-9.784,-0.135,3.698,-0.631,-0.3909,0.31570000000000004,-0.004,0.014,-0.055
1670355663.599973,-9.786,-0.134,3.746,-0.6397,-0.3917,0.32830000000000004,0.006,0.011,-0.047
1670355663.639973,-9.826,-0.101,3.734,-0.6348,-0.3927,0.32080000000000003,0.008,0.019,-0.046
1670355663.679973,-9.806000000000001,-0.146,3.719,-0.6324000000000001,-0.39330000000000004,0.31980000000000003,0.008,0.03,-0.043000000000000003
1670355663.719973,-9.745000000000001,-0.116,3.714,-0.6328,-0.3919,0.31970000000000004,0.015,0.017,-0.044
1670355663.759973,-9.763,-0.083,3.672,-0.6316,-0.3945,0.319,0.017,0.013000000000000001,-0.049
1670355663.799973,-9.799,-0.111,3.677,-0.6314000000000001,-0.3952,0.32180000000000003,0.018000000000000002,0.015,-0.056
1670355663.839973,-9.8,-0.116,3.6950000000000003,-0.6303000000000001,-0.3925,0.32,0.003,0.018000000000000002,-0.051000000000000004
1670355663.879972,-9.763,-0.101,3.705,-0.6316,-0.3925,0.317,0.006,0.011,-0.051000000000000004
1670355663.919972,-9.757,-0.125,3.678,-0.6305000000000001,-0.395,0.3184,0.008,0.011,-0.051000000000000004
1670355663.959972,-9.785,-0.117,3.697,-0.6314000000000001,-0.3924,0.3241,0.01,0.013000000000000001,-0.048
1670355663.9999719,-9.78,-0.132,3.6830000000000003,-0.6323000000000001,-0.3916,0.3199,0.007,0.013000000000000001,-0.05
1670355664.039972,-9.763,-0.12,3.725,-0.6359,-0.3932,0.3214,0.01,0.012,-0.044
1670355664.079972,-9.785,-0.1,3.704,-0.6313000000000001,-0.3935,0.3206,0.007,0.017,-0.047
1670355664.119972,-9.789,-0.105,3.71,-0.6307,-0.3905,0.319,0.007,0.019,-0.051000000000000004
1670355664.159972,-9.752,-0.12,3.7030000000000003,-0.6328,-0.3946,0.3189,0.01,0.016,-0.049
1670355664.199972,-9.761000000000001,-0.111,3.718,-0.6302,-0.3947,0.32330000000000003,0.004,0.016,-0.056
1670355664.2399719,-9.747,-0.08700000000000001,3.7070000000000003,-0.6317,-0.3916,0.3219,0.011,0.014,-0.054
1670355664.279972,-9.816,-0.079,3.702,-0.6306,-0.3935,0.31920000000000004,0.015,0.019,-0.047
1670355664.319972,-9.792,-0.135,3.6710000000000003,-0.6306,-0.3917,0.319,0.004,0.029,-0.052000000000000005
1670355664.359972,-9.764,-0.075,3.6870000000000003,-0.6292,-0.3925,0.318,0.01,0.026000000000000002,-0.051000000000000004
1670355664.399972,-9.758000000000001,-0.088,3.668,-0.6327,-0.3935,0.3185,0.009000000000000001,0.014,-0.055
1670355664.439972,-9.785,-0.08700000000000001,3.698,-0.6289,-0.393,0.32120000000000004,0.008,0.009000000000000001,-0.054
1670355664.479972,-9.797,-0.105,3.7110000000000003,-0.6315000000000001,-0.3936,0.32130000000000003,0.014,0.013000000000000001,-0.053
1670355664.519972,-9.731,-0.125,3.69,-0.6328,-0.3931,0.31920000000000004,0.01,0.013000000000000001,-0.056
1670355664.559972,-9.712,-0.09,3.71,-0.6327,-0.3925,0.3194,0.004,0.003,-0.047
1670355664.599972,-9.807,-0.135,3.6710000000000003,-0.6314000000000001,-0.3924,0.323,0.006,0.018000000000000002,-0.047
1670355664.639972,-9.795,-0.07200000000000001,3.744,-0.6311,-0.39540000000000003,0.32020000000000004,0.001,0.029,-0.05
1670355664.679972,-9.719,-0.074,3.696,-0.633,-0.39580000000000004,0.3201,0.007,0.018000000000000002,-0.04
1670355664.719972,-9.779,-0.076,3.681,-0.6319,-0.3936,0.32180000000000003,0.015,0.015,-0.053
1670355664.759972,-9.807,-0.068,3.686,-0.6325000000000001,-0.39390000000000003,0.319,0.017,0.018000000000000002,-0.051000000000000004
1670355664.799972,-9.794,-0.113,3.677,-0.6288,-0.3972,0.31970000000000004,0.0,0.027,-0.051000000000000004
1670355664.839972,-9.758000000000001,-0.073,3.674,-0.6306,-0.395,0.32,-0.006,0.016,-0.047
1670355664.879972,-9.774000000000001,-0.083,3.734,-0.631,-0.3935,0.3205,0.003,0.016,-0.057
1670355664.919971,-9.774000000000001,-0.082,3.7030000000000003,-0.6309,-0.39530000000000004,0.3189,0.005,0.017,-0.051000000000000004
1670355664.959971,-9.766,-0.114,3.719,-0.6312,-0.3966,0.3211,0.001,0.016,-0.054
1670355664.999971,-9.757,-0.101,3.674,-0.6302,-0.3946,0.3176,-0.002,0.017,-0.053
1670355665.0399709,-9.781,-0.1,3.682,-0.6314000000000001,-0.3934,0.3179,-0.005,0.018000000000000002,-0.053
1670355665.079971,-9.789,-0.097,3.686,-0.6286,-0.39430000000000004,0.31820000000000004,0.002,0.017,-0.049
1670355665.119971,-9.774000000000001,-0.089,3.716,-0.6311,-0.39490000000000003,0.3204,0.012,0.02,-0.048
1670355665.159971,-9.785,-0.08700000000000001,3.6750000000000003,-0.6316,-0.3945,0.32,0.013000000000000001,0.024,-0.049
1670355665.199971,-9.809000000000001,-0.08700000000000001,3.697,-0.6285000000000001,-0.3935,0.3214,0.019,0.031,-0.053
1670355665.239971,-9.768,-0.192,3.662,-0.632,-0.39480000000000004,0.3184,-0.019,0.04,-0.031
1670355665.279971,-9.786,-0.021,3.696,-0.6322,-0.3955,0.3178,0.001,0.025,-0.045
1670355665.319971,-9.846,-0.014,3.71,-0.6301,-0.3947,0.3206,0.035,0.0,-0.067
1670355665.359971,-9.785,-0.169,3.613,-0.6317,-0.3927,0.3225,0.023,0.016,-0.06
1670355665.399971,-9.743,-0.108,3.658,-0.6305000000000001,-0.3941,0.32120000000000004,-0.003,0.015,-0.042
1670355665.439971,-9.771,-0.046,3.6750000000000003,-0.6296,-0.39230000000000004,0.3214,-0.003,0.008,-0.052000000000000005
1670355665.479971,-9.797,-0.062,3.717,-0.6321,-0.39380000000000004,0.32080000000000003,0.011,0.007,-0.065
1670355665.519971,-9.798,-0.116,3.731,-0.6316,-0.3941,0.3206,0.014,0.007,-0.061
1670355665.559971,-9.754,-0.146,3.7110000000000003,-0.645,-0.39690000000000003,0.3321,0.003,0.007,-0.062
1670355665.599971,-9.802,-0.019,3.72,-0.6316,-0.39480000000000004,0.3084,-0.002,0.007,-0.045
1670355665.639971,-9.802,-0.14100000000000001,3.727,-0.6316,-0.39480000000000004,0.299,0.006,0.01,-0.051000000000000004
1670355665.679971,-9.792,-0.14100000000000001,3.727,-0.6349,-0.3966,0.299,0.005,0.018000000000000002,-0.058
1670355665.719971,-9.764,-0.092,3.697,-0.6344000000000001,-0.3952,0.33340000000000003,0.007,0.014,-0.046
1670355665.759971,-9.736,-0.082,3.696,-0.633,-0.3962,0.3457,0.014,0.012,-0.052000000000000005
1670355665.799971,-9.774000000000001,-0.107,3.701,-0.6346,-0.3952,0.3035,0.015,0.012,-0.054
1670355665.839971,-9.783,-0.08600000000000001,3.714,-0.6329,-0.3975,0.3135,0.01,0.017,-0.054
1670355665.879971,-9.777000000000001,-0.107,3.708,-0.6309,-0.3914,0.3206,-0.001,0.016,-0.053
1670355665.919971,-9.779,-0.098,3.685,-0.6331,-0.39530000000000004,0.32030000000000003,-0.007,0.016,-0.052000000000000005
1670355665.95997,-9.767,-0.092,3.708,-0.6319,-0.3946,0.32230000000000003,0.001,0.009000000000000001,-0.048
1670355665.99997,-9.777000000000001,-0.113,3.6990000000000003,-0.6317,-0.3914,0.3209,0.0,0.018000000000000002,-0.055
1670355666.03997,-9.755,-0.136,3.74,-0.6318,-0.3941,0.32080000000000003,0.004,0.01,-0.046
1670355666.07997,-9.733,-0.14,3.714,-0.6319,-0.3935,0.3206,0.007,0.0,-0.048
1670355666.11997,-9.763,-0.074,3.729,-0.6318,-0.3935,0.3225,0.01,0.002,-0.045
1670355666.15997,-9.772,-0.10200000000000001,3.723,-0.635,-0.3942,0.32020000000000004,0.02,0.009000000000000001,-0.05
1670355666.19997,-9.744,-0.117,3.708,-0.6324000000000001,-0.3961,0.3216,0.017,0.011,-0.049
1670355666.23997,-9.767,-0.10400000000000001,3.738,-0.6319,-0.3957,0.3225,0.005,0.016,-0.047
1670355666.27997,-9.698,-0.092,3.7110000000000003,-0.6337,-0.3952,0.3219,0.001,0.022,-0.05
1670355666.31997,-9.774000000000001,-0.027,3.686,-0.6397,-0.39690000000000003,0.3225,0.014,0.023,-0.044
1670355666.35997,-9.801,-0.134,3.73,-0.6318,-0.3955,0.3244,-0.002,0.027,-0.05
1670355666.39997,-9.723,-0.062,3.715,-0.6339,-0.3937,0.3239,-0.005,0.02,-0.054
1670355666.43997,-9.739,-0.095,3.668,-0.633,-0.395,0.3216,0.0,0.004,-0.049
1670355666.47997,-9.772,-0.058,3.736,-0.6324000000000001,-0.3967,0.3242,0.009000000000000001,0.01,-0.057
1670355666.51997,-9.767,-0.088,3.725,-0.6335000000000001,-0.3922,0.3221,0.012,0.008,-0.054
1670355666.55997,-9.759,-0.139,3.729,-0.6335000000000001,-0.39380000000000004,0.3199,-0.005,0.015,-0.052000000000000005
1670355666.59997,-9.746,-0.096,3.742,-0.6324000000000001,-0.3937,0.32320000000000004,-0.005,0.008,-0.042
1670355666.63997,-9.809000000000001,-0.10300000000000001,3.745,-0.6346,-0.39380000000000004,0.3231,0.002,0.02,-0.051000000000000004
1670355666.67997,-9.747,-0.078,3.732,-0.6365000000000001,-0.39490000000000003,0.3219,-0.004,0.02,-0.047
1670355666.71997,-9.754,-0.111,3.757,-0.6319,-0.3935,0.3226,-0.001,0.007,-0.045
1670355666.75997,-9.74,-0.07,3.744,-0.6341,-0.3941,0.3219,0.0,0.012,-0.052000000000000005
1670355666.79997,-9.77,-0.08600000000000001,3.732,-0.6331,-0.39680000000000004,0.321,0.01,0.015,-0.056
1670355666.83997,-9.779,-0.108,3.728,-0.6342,-0.393,0.3245,-0.001,0.022,-0.047
1670355666.87997,-9.748,-0.097,3.71,-0.6312,-0.3946,0.32130000000000003,-0.009000000000000001,0.022,-0.047
1670355666.91997,-9.729000000000001,-0.08700000000000001,3.735,-0.6337,-0.3947,0.3194,-0.008,0.023,-0.058
1670355666.95997,-9.764,-0.082,3.738,-0.6326,-0.39480000000000004,0.32080000000000003,0.0,0.02,-0.049
1670355666.999969,-9.768,-0.117,3.721,-0.6319,-0.3914,0.3215,-0.001,0.019,-0.05
1670355667.039969,-9.746,-0.101,3.732,-0.6344000000000001,-0.3932,0.3225,0.001,0.015,-0.054
1670355667.079969,-9.776,-0.101,3.717,-0.6342,-0.39380000000000004,0.3194,-0.002,0.016,-0.052000000000000005
1670355667.119969,-9.752,-0.096,3.8040000000000003,-0.6302,-0.3931,0.32330000000000003,0.004,0.017,-0.051000000000000004
1670355667.159969,-9.741,-0.10200000000000001,3.72,-0.6322,-0.3919,0.32020000000000004,0.007,0.016,-0.053
1670355667.199969,-9.716000000000001,-0.126,3.724,-0.6333000000000001,-0.3916,0.3201,0.002,0.019,-0.05
1670355667.239969,-9.818,-0.082,3.773,-0.6334000000000001,-0.3936,0.32120000000000004,0.006,0.022,-0.046
1670355667.279969,-9.801,-0.106,3.747,-0.6367,-0.3937,0.32170000000000004,0.005,0.025,-0.052000000000000005
1670355667.319969,-9.713000000000001,-0.114,3.708,-0.631,-0.3935,0.32020000000000004,-0.008,0.027,-0.048
1670355667.359969,-9.709,-0.099,3.7070000000000003,-0.6315000000000001,-0.39490000000000003,0.3224,0.0,0.013000000000000001,-0.054
1670355667.399969,-9.794,-0.076,3.757,-0.6325000000000001,-0.3934,0.3205,0.003,0.014,-0.062
1670355667.439969,-9.774000000000001,-0.10400000000000001,3.708,-0.6333000000000001,-0.3952,0.3201,0.009000000000000001,0.015,-0.057
1670355667.479969,-9.736,-0.138,3.738,-0.6328,-0.3947,0.32070000000000004,0.012,0.008,-0.056
1670355667.519969,-9.78,-0.098,3.734,-0.6347,-0.39380000000000004,0.3231,0.006,0.0,-0.056
1670355667.559969,-9.808,-0.083,3.762,-0.6324000000000001,-0.39390000000000003,0.31970000000000004,0.022,0.011,-0.049
1670355667.599969,-9.783,-0.12,3.774,-0.6338,-0.39640000000000003,0.32130000000000003,0.017,0.016,-0.051000000000000004
1670355667.639969,-9.723,-0.125,3.762,-0.6372,-0.3942,0.3255,0.013000000000000001,0.011,-0.043000000000000003
1670355667.679969,-9.742,-0.105,3.748,-0.6358,-0.3946,0.3265,0.021,0.01,-0.048
1670355667.719969,-9.781,-0.098,3.7640000000000002,-0.6322,-0.3935,0.319,0.022,0.009000000000000001,-0.055
1670355667.759969,-9.757,-0.133,3.742,-0.634,-0.39330000000000004,0.3216,0.013000000000000001,0.019,-0.048
1670355667.799969,-9.737,-0.08600000000000001,3.767,-0.6351,-0.3955,0.3312,0.002,0.027,-0.046
1670355667.839969,-9.76,-0.084,3.747,-0.6351,-0.39490000000000003,0.3395,0.01,0.028,-0.043000000000000003
1670355667.879969,-9.76,-0.084,3.759,-0.6351,-0.39490000000000003,0.3073,0.005,0.029,-0.044
1670355667.9199688,-9.788,-0.079,3.759,-0.6324000000000001,-0.39390000000000003,0.3073,0.007,0.03,-0.048
1670355667.959969,-9.773,-0.092,3.741,-0.6349,-0.3961,0.31520000000000004,0.0,0.019,-0.057
1670355667.999969,-9.737,-0.077,3.708,-0.6367,-0.39530000000000004,0.32230000000000003,0.003,0.021,-0.058
1670355668.039968,-9.779,-0.095,3.726,-0.6335000000000001,-0.3952,0.3387,0.008,0.009000000000000001,-0.057
1670355668.079968,-9.761000000000001,-0.095,3.745,-0.6341,-0.396,0.3239,0.004,0.013000000000000001,-0.054
1670355668.119968,-9.74,-0.078,3.77,-0.6306,-0.39490000000000003,0.3183,0.005,0.016,-0.053
1670355668.159968,-9.72,-0.05,3.748,-0.6335000000000001,-0.3925,0.3229,0.001,0.018000000000000002,-0.054
1670355668.199968,-9.785,-0.065,3.75,-0.6346,-0.3975,0.3245,0.012,0.03,-0.048
1670355668.239968,-9.788,-0.17,3.75,-0.632,-0.3957,0.3204,0.002,0.038,-0.05
1670355668.279968,-9.715,-0.076,3.718,-0.6323000000000001,-0.3942,0.322,-0.003,0.027,-0.052000000000000005
1670355668.319968,-9.737,-0.11,3.731,-0.632,-0.39440000000000003,0.3201,-0.002,0.02,-0.054
1670355668.359968,-9.781,-0.083,3.731,-0.6306,-0.392,0.3225,0.007,0.019,-0.052000000000000005
1670355668.399968,-9.776,-0.098,3.737,-0.6315000000000001,-0.39440000000000003,0.323,0.005,0.016,-0.046
1670355668.439968,-9.703,-0.138,3.69,-0.6328,-0.3942,0.32,0.007,0.006,-0.048
1670355668.479968,-9.697000000000001,-0.061,3.762,-0.6395000000000001,-0.39780000000000004,0.3259,0.016,0.018000000000000002,-0.043000000000000003
1670355668.519968,-9.792,-0.145,3.698,-0.631,-0.3945,0.32070000000000004,0.012,0.026000000000000002,-0.044
1670355668.559968,-9.766,-0.044,3.748,-0.6325000000000001,-0.396,0.32080000000000003,0.006,0.03,-0.052000000000000005
1670355668.599968,-9.701,-0.073,3.6910000000000003,-0.6328,-0.3972,0.32070000000000004,0.002,0.026000000000000002,-0.05
1670355668.639968,-9.772,-0.068,3.6830000000000003,-0.632,-0.3925,0.3239,-0.001,0.021,-0.051000000000000004
1670355668.679968,-9.782,-0.06,3.717,-0.6348,-0.39590000000000003,0.3299,-0.001,0.021,-0.055
1670355668.719968,-9.772,-0.128,3.702,-0.6344000000000001,-0.3962,0.32280000000000003,-0.01,0.013000000000000001,-0.052000000000000005
1670355668.759968,-9.767,-0.088,3.698,-0.6289,-0.3946,0.32120000000000004,-0.004,0.012,-0.056
1670355668.799968,-9.788,-0.07,3.72,-0.6342,-0.39280000000000004,0.3231,0.008,0.013000000000000001,-0.056
1670355668.839968,-9.752,-0.10200000000000001,3.7,-0.6303000000000001,-0.39440000000000003,0.3204,0.007,0.01,-0.057
1670355668.879968,-9.748,-0.11900000000000001,3.713,-0.6325000000000001,-0.3921,0.322,0.011,0.014,-0.051000000000000004
1670355668.919968,-9.755,-0.111,3.714,-0.6304000000000001,-0.39490000000000003,0.322,0.004,0.012,-0.051000000000000004
1670355668.9599679,-9.769,-0.111,3.731,-0.633,-0.3955,0.3225,0.004,0.015,-0.057
1670355668.999968,-9.774000000000001,-0.11,3.759,-0.6328,-0.3935,0.3211,0.006,0.014,-0.059000000000000004
1670355669.039968,-9.781,-0.11900000000000001,3.741,-0.6331,-0.395,0.32230000000000003,0.002,0.013000000000000001,-0.056
1670355669.079967,-9.689,-0.121,3.727,-0.6345000000000001,-0.3942,0.3214,0.004,0.007,-0.049
1670355669.119967,-9.787,-0.052000000000000005,3.774,-0.6333000000000001,-0.3942,0.3225,0.015,0.015,-0.042
1670355669.159967,-9.812,-0.138,3.731,-0.6303000000000001,-0.3922,0.32080000000000003,0.015,0.031,-0.058
1670355669.199967,-9.724,-0.079,3.6830000000000003,-0.6306,-0.3941,0.3209,0.001,0.029,-0.055
1670355669.239967,-9.701,-0.113,3.696,-0.6314000000000001,-0.39530000000000004,0.3181,-0.008,0.021,-0.044
1670355669.279967,-9.751,-0.082,3.732,-0.6302,-0.3925,0.32320000000000004,0.004,0.015,-0.054
1670355669.319967,-9.766,-0.11,3.7110000000000003,-0.6363,-0.3942,0.32030000000000003,0.009000000000000001,0.01,-0.058
1670355669.359967,-9.787,-0.122,3.704,-0.6346,-0.393,0.3199,0.007,0.011,-0.054
1670355669.399967,-9.746,-0.145,3.709,-0.6314000000000001,-0.3947,0.32180000000000003,-0.003,0.016,-0.057
1670355669.439967,-9.793000000000001,-0.113,3.759,-0.635,-0.3941,0.3199,0.003,0.02,-0.049
1670355669.479967,-9.796,-0.112,3.789,-0.6334000000000001,-0.3941,0.3183,0.006,0.025,-0.051000000000000004
1670355669.519967,-9.76,-0.117,3.72,-0.631,-0.39330000000000004,0.31870000000000004,0.007,0.024,-0.045
1670355669.559967,-9.725,-0.108,3.7600000000000002,-0.6346,-0.39330000000000004,0.3215,0.011,0.014,-0.045
1670355669.599967,-9.771,-0.09,3.743,-0.6335000000000001,-0.39490000000000003,0.3226,0.012,0.016,-0.042
1670355669.639967,-9.758000000000001,-0.114,3.724,-0.6299,-0.39330000000000004,0.3219,0.005,0.025,-0.044
1670355669.679967,-9.78,-0.126,3.7560000000000002,-0.632,-0.3931,0.3219,0.004,0.015,-0.043000000000000003
1670355669.719967,-9.755,-0.10200000000000001,3.713,-0.6337,-0.3961,0.32630000000000003,0.006,0.025,-0.047
1670355669.7599669,-9.785,-0.096,3.729,-0.6318,-0.3931,0.3216,0.005,0.021,-0.049
1670355669.799967,-9.752,-0.082,3.704,-0.6322,-0.39530000000000004,0.32120000000000004,0.011,0.012,-0.044
1670355669.839967,-9.785,-0.089,3.71,-0.6354000000000001,-0.39640000000000003,0.3196,0.016,0.011,-0.05
1670355669.879967,-9.744,-0.10200000000000001,3.737,-0.632,-0.3919,0.3219,0.011,0.006,-0.048
1670355669.919967,-9.774000000000001,-0.10200000000000001,3.771,-0.6336,-0.3947,0.31970000000000004,0.005,0.008,-0.042
1670355669.959967,-9.77,-0.081,3.736,-0.632,-0.3955,0.31770000000000004,0.009000000000000001,0.016,-0.049
1670355669.9999669,-9.742,-0.088,3.717,-0.6333000000000001,-0.3955,0.3163,0.004,0.012,-0.054
1670355670.039967,-9.76,-0.113,3.7720000000000002,-0.6371,-0.3936,0.3123,0.007,0.019,-0.051000000000000004
1670355670.079967,-9.76,-0.097,3.732,-0.6371,-0.396,0.3133,-0.005,0.012,-0.052000000000000005
1670355670.119967,-9.731,-0.097,3.732,-0.6322,-0.396,0.3133,-0.002,0.021,-0.043000000000000003
1670355670.159967,-9.792,-0.039,3.747,-0.6355000000000001,-0.394,0.3195,0.0,0.032,-0.048
1670355670.199966,-9.737,-0.165,3.6670000000000003,-0.6353,-0.391,0.33640000000000003,-0.005,0.03,-0.053
1670355670.239966,-9.717,-0.075,3.673,-0.6361,-0.394,0.3169,-0.011,0.015,-0.049
1670355670.279966,-9.746,-0.074,3.722,-0.6353,-0.3955,0.33580000000000004,-0.004,0.009000000000000001,-0.057
1670355670.319966,-9.782,-0.095,3.726,-0.6331,-0.39390000000000003,0.3108,0.01,0.013000000000000001,-0.056
1670355670.359966,-9.773,-0.114,3.712,-0.6342,-0.39280000000000004,0.3211,-0.003,0.02,-0.051000000000000004
1670355670.399966,-9.712,-0.152,3.718,-0.6341,-0.395,0.3201,-0.009000000000000001,0.025,-0.048
1670355670.439966,-9.72,-0.052000000000000005,3.7560000000000002,-0.6324000000000001,-0.39380000000000004,0.3245,0.009000000000000001,0.021,-0.053
1670355670.479966,-9.751,-0.146,3.742,-0.6347,-0.3937,0.3244,0.007,0.024,-0.051000000000000004
1670355670.519966,-9.739,-0.096,3.741,-0.6362,-0.393,0.32120000000000004,-0.002,0.031,-0.046
1670355670.5599658,-9.762,-0.088,3.737,-0.6458,-0.39740000000000003,0.328,0.0,0.02,-0.042
1670355670.599966,-9.779,-0.067,3.723,-0.6345000000000001,-0.3941,0.3189,0.007,0.021,-0.056
1670355670.639966,-9.764,-0.084,3.696,-0.6402,-0.392,0.3209,0.002,0.013000000000000001,-0.048
1670355670.679966,-9.76,-0.082,3.714,-0.6322,-0.3916,0.3225,-0.002,0.015,-0.054
1670355670.719966,-9.758000000000001,-0.088,3.731,-0.6358,-0.39390000000000003,0.3216,-0.002,0.013000000000000001,-0.055
1670355670.759966,-9.75,-0.109,3.689,-0.6363,-0.39530000000000004,0.322,0.002,0.013000000000000001,-0.053
1670355670.7999659,-9.756,-0.109,3.719,-0.6336,-0.39380000000000004,0.32070000000000004,0.007,0.01,-0.056
1670355670.839966,-9.739,-0.123,3.735,-0.6349,-0.3909,0.3178,0.001,0.016,-0.055
1670355670.879966,-9.752,-0.113,3.6990000000000003,-0.633,-0.3935,0.32370000000000004,0.0,0.01,-0.049
1670355670.919966,-9.764,-0.099,3.763,-0.6324000000000001,-0.3931,0.3236,0.005,0.009000000000000001,-0.051000000000000004
1670355670.959966,-9.779,-0.10200000000000001,3.766,-0.6341,-0.3921,0.3206,0.005,0.017,-0.048
1670355670.999966,-9.724,-0.107,3.754,-0.6364000000000001,-0.39280000000000004,0.3199,0.006,0.02,-0.057
1670355671.0399659,-9.71,-0.111,3.75,-0.6327,-0.39380000000000004,0.319,0.003,0.022,-0.055
1670355671.079966,-9.739,-0.096,3.745,-0.6333000000000001,-0.3946,0.3211,0.004,0.013000000000000001,-0.047
1670355671.119966,-9.825000000000001,-0.08700000000000001,3.722,-0.6333000000000001,-0.39590000000000003,0.32,0.013000000000000001,0.023,-0.043000000000000003
1670355671.159966,-9.804,-0.12,3.748,-0.6352,-0.3936,0.32120000000000004,0.008,0.032,-0.049
1670355671.199966,-9.712,-0.077,3.705,-0.6357,-0.393,0.3209,0.002,0.019,-0.057
1670355671.239965,-9.755,-0.098,3.709,-0.6346,-0.3905,0.3201,0.008,0.014,-0.046
1670355671.279965,-9.822000000000001,-0.109,3.751,-0.6316,-0.3931,0.322,0.017,0.009000000000000001,-0.054
1670355671.319965,-9.785,-0.11900000000000001,3.746,-0.632,-0.3955,0.323,0.012,0.012,-0.048
1670355671.3599648,-9.673,-0.138,3.731,-0.6352,-0.3942,0.3194,0.001,0.01,-0.058
1670355671.399965,-9.676,-0.077,3.783,-0.6332,-0.393,0.3191,0.014,-0.002,-0.052000000000000005
1670355671.439965,-9.766,-0.145,3.762,-0.6355000000000001,-0.3936,0.3214,0.016,0.014,-0.049
1670355671.479965,-9.759,-0.08700000000000001,3.7680000000000002,-0.6348,-0.3932,0.32020000000000004,0.006,0.02,-0.05
1670355671.519965,-9.716000000000001,-0.095,3.806,-0.6322,-0.3935,0.32130000000000003,0.008,0.018000000000000002,-0.039
1670355671.559965,-9.764,-0.065,3.727,-0.6344000000000001,-0.3927,0.322,0.02,0.015,-0.056
1670355671.5999649,-9.774000000000001,-0.08,3.759,-0.6345000000000001,-0.3952,0.31980000000000003,0.02,0.019,-0.053
1670355671.639965,-9.753,-0.13,3.729,-0.6342,-0.392,0.32220000000000004,0.006,0.018000000000000002,-0.052000000000000005
1670355671.679965,-9.733,-0.067,3.744,-0.6314000000000001,-0.3907,0.32170000000000004,0.003,0.02,-0.051000000000000004
1670355671.719965,-9.751,-0.095,3.757,-0.6335000000000001,-0.3955,0.3259,-0.001,0.022,-0.057
1670355671.759965,-9.764,-0.089,3.744,-0.6366,-0.3975,0.318,-0.001,0.021,-0.055
1670355671.799965,-9.754,-0.109,3.762,-0.6342,-0.3946,0.324,0.0,0.022,-0.054
1670355671.8399649,-9.764,-0.094,3.731,-0.6371,-0.39430000000000004,0.32280000000000003,0.004,0.024,-0.053
1670355671.879965,-9.733,-0.111,3.723,-0.6331,-0.39330000000000004,0.3225,0.001,0.016,-0.054
1670355671.919965,-9.78,-0.099,3.728,-0.6336,-0.3937,0.3206,0.006,0.018000000000000002,-0.053
1670355671.959965,-9.764,-0.099,3.7600000000000002,-0.6355000000000001,-0.392,0.32080000000000003,0.01,0.021,-0.053
1670355671.999965,-9.754,-0.116,3.731,-0.6358,-0.3932,0.32270000000000004,0.006,0.025,-0.059000000000000004
1670355672.039965,-9.769,-0.138,3.725,-0.6359,-0.3909,0.323,0.001,0.015,-0.05
1670355672.0799649,-9.763,-0.08600000000000001,3.757,-0.6356,-0.39580000000000004,0.3191,0.002,0.008,-0.048
1670355672.119965,-9.825000000000001,-0.044,3.762,-0.6341,-0.39380000000000004,0.3209,0.015,0.01,-0.057
1670355672.159965,-9.729000000000001,-0.163,3.715,-0.6316,-0.3934,0.31920000000000004,0.01,0.03,-0.057
1670355672.199965,-9.713000000000001,-0.094,3.717,-0.6345000000000001,-0.3932,0.3224,-0.002,0.023,-0.048
1670355672.239965,-9.729000000000001,-0.067,3.712,-0.6336,-0.39490000000000003,0.32270000000000004,-0.002,0.019,-0.04
1670355672.279964,-9.754,-0.079,3.753,-0.6359,-0.39540000000000003,0.3316,0.008,0.011,-0.059000000000000004
1670355672.319964,-9.754,-0.134,3.758,-0.6359,-0.3941,0.33680000000000004,0.003,0.012,-0.06
1670355672.359964,-9.801,-0.134,3.763,-0.6343,-0.3941,0.33680000000000004,0.0,0.016,-0.057
1670355672.3999639,-9.711,-0.164,3.763,-0.6377,-0.3946,0.31470000000000004,-0.005,0.01,-0.052000000000000005
1670355672.439964,-9.734,-0.04,3.766,-0.6327,-0.3955,0.3214,0.004,0.013000000000000001,-0.054
1670355672.479964,-9.76,-0.18,3.751,-0.6388,-0.39390000000000003,0.3386,0.001,0.024,-0.056
1670355672.519964,-9.724,-0.12,3.702,-0.6383,-0.39580000000000004,0.3305,0.006,0.019,-0.057
1670355672.559964,-9.737,-0.096,3.7760000000000002,-0.6408,-0.3935,0.343,0.004,0.015,-0.057
1670355672.599964,-9.748,-0.108,3.7680000000000002,-0.6347,-0.39380000000000004,0.32280000000000003,0.011,0.018000000000000002,-0.064
1670355672.6399639,-9.785,-0.129,3.762,-0.6366,-0.3937,0.32780000000000004,0.002,0.017,-0.063
1670355672.679964,-9.755,-0.161,3.753,-0.6345000000000001,-0.39380000000000004,0.32230000000000003,-0.003,0.017,-0.059000000000000004
1670355672.719964,-9.734,-0.113,3.7560000000000002,-0.6446000000000001,-0.3957,0.33440000000000003,-0.001,0.017,-0.054
1670355672.759964,-9.727,-0.122,3.763,-0.6354000000000001,-0.38980000000000004,0.3255,0.003,0.019,-0.056
1670355672.799964,-9.758000000000001,-0.11900000000000001,3.749,-0.6375000000000001,-0.39440000000000003,0.3224,0.009000000000000001,0.017,-0.058
1670355672.839964,-9.755,-0.137,3.757,-0.6358,-0.39280000000000004,0.3231,0.012,0.009000000000000001,-0.056
1670355672.8799639,-9.744,-0.132,3.759,-0.6358,-0.3926,0.3241,0.008,0.016,-0.052000000000000005
1670355672.919964,-9.765,-0.153,3.749,-0.6363,-0.39540000000000003,0.322,0.002,0.011,-0.046
1670355672.959964,-9.754,-0.10400000000000001,3.79,-0.6341,-0.39330000000000004,0.32530000000000003,0.008,0.013000000000000001,-0.051000000000000004
1670355672.999964,-9.76,-0.112,3.741,-0.6385000000000001,-0.39390000000000003,0.3225,0.017,0.013000000000000001,-0.053
1670355673.039964,-9.73,-0.14,3.7640000000000002,-0.6347,-0.3957,0.32,0.006,0.014,-0.054
1670355673.079964,-9.734,-0.149,3.7720000000000002,-0.6323000000000001,-0.3924,0.324,-0.006,0.009000000000000001,-0.047
1670355673.119964,-9.66,-0.123,3.777,-0.6358,-0.3932,0.32320000000000004,-0.01,0.012,-0.043000000000000003
1670355673.159964,-9.739,-0.055,3.769,-0.6366,-0.3922,0.3194,0.014,0.002,-0.044
1670355673.199964,-9.782,-0.159,3.763,-0.6339,-0.39330000000000004,0.3215,0.013000000000000001,0.019,-0.054
1670355673.239964,-9.71,-0.107,3.786,-0.6356,-0.3941,0.32080000000000003,0.004,0.021,-0.049
1670355673.279964,-9.701,-0.154,3.801,-0.6357,-0.3932,0.32030000000000003,-0.005,0.01,-0.044
1670355673.319963,-9.753,-0.08600000000000001,3.801,-0.6342,-0.3927,0.3255,0.012,0.007,-0.045
1670355673.359963,-9.77,-0.113,3.773,-0.6357,-0.3932,0.32580000000000003,0.016,0.01,-0.056
1670355673.399963,-9.755,-0.147,3.782,-0.6362,-0.39330000000000004,0.3205,0.004,0.024,-0.057
1670355673.4399629,-9.739,-0.137,3.789,-0.6355000000000001,-0.3932,0.325,-0.003,0.021,-0.042
1670355673.479963,-9.804,-0.101,3.807,-0.6352,-0.3917,0.3251,0.0,0.021,-0.041
1670355673.519963,-9.748,-0.1,3.798,-0.6351,-0.39440000000000003,0.3206,0.005,0.026000000000000002,-0.054
1670355673.559963,-9.725,-0.117,3.744,-0.6332,-0.39390000000000003,0.3204,0.001,0.029,-0.047
1670355673.599963,-9.724,-0.096,3.762,-0.6332,-0.3935,0.3247,0.013000000000000001,0.02,-0.044
1670355673.639963,-9.759,-0.096,3.736,-0.6355000000000001,-0.3952,0.32380000000000003,0.011,0.018000000000000002,-0.051000000000000004
1670355673.6799629,-9.74,-0.11900000000000001,3.738,-0.6334000000000001,-0.39530000000000004,0.32180000000000003,0.0,0.021,-0.05
1670355673.719963,-9.758000000000001,-0.122,3.753,-0.6319,-0.394,0.3261,-0.011,0.019,-0.047
1670355673.759963,-9.73,-0.10400000000000001,3.774,-0.6376000000000001,-0.3947,0.3206,0.0,0.017,-0.062
1670355673.799963,-9.755,-0.12,3.741,-0.6353,-0.3922,0.32330000000000003,0.002,0.01,-0.056
1670355673.839963,-9.729000000000001,-0.139,3.777,-0.6369,-0.3931,0.32580000000000003,-0.003,0.016,-0.048
1670355673.879963,-9.734,-0.13,3.813,-0.6344000000000001,-0.3942,0.323,-0.002,0.016,-0.053
1670355673.919963,-9.751,-0.14100000000000001,3.793,-0.6339,-0.3936,0.32320000000000004,0.001,0.019,-0.053
1670355673.959963,-9.743,-0.10400000000000001,3.779,-0.634,-0.39580000000000004,0.32380000000000003,0.002,0.02,-0.05
1670355673.999963,-9.718,-0.09,3.782,-0.6353,-0.3919,0.3194,0.01,0.025,-0.055
1670355674.039963,-9.728,-0.113,3.779,-0.6363,-0.3921,0.3209,0.021,0.026000000000000002,-0.055
1670355674.079963,-9.733,-0.14100000000000001,3.789,-0.634,-0.3921,0.3225,0.01,0.019,-0.052000000000000005
1670355674.119963,-9.739,-0.171,3.757,-0.6347,-0.3931,0.3241,-0.004,0.011,-0.046
1670355674.159963,-9.779,-0.08700000000000001,3.7720000000000002,-0.6359,-0.39130000000000004,0.32130000000000003,-0.007,0.009000000000000001,-0.046
1670355674.199963,-9.831,-0.10200000000000001,3.7640000000000002,-0.6333000000000001,-0.3911,0.32170000000000004,0.002,0.02,-0.053
1670355674.239963,-9.691,-0.164,3.798,-0.6336,-0.39440000000000003,0.3231,-0.007,0.023,-0.054
1670355674.279963,-9.694,-0.133,3.7600000000000002,-0.6347,-0.3917,0.3245,-0.003,0.013000000000000001,-0.049
1670355674.319963,-9.746,-0.096,3.798,-0.6337,-0.392,0.32330000000000003,0.002,0.001,-0.056
1670355674.359962,-9.751,-0.154,3.809,-0.6348,-0.3932,0.3215,0.017,0.001,-0.055
1670355674.399962,-9.767,-0.18,3.786,-0.6366,-0.3951,0.3219,0.009000000000000001,0.01,-0.049
1670355674.439962,-9.758000000000001,-0.17400000000000002,3.819,-0.6366,-0.3916,0.3245,0.007,0.01,-0.053
1670355674.4799619,-9.764,-0.067,3.777,-0.6357,-0.39280000000000004,0.32220000000000004,0.012,0.005,-0.045
1670355674.519962,-9.757,-0.177,3.8000000000000003,-0.6359,-0.3919,0.3115,0.018000000000000002,0.018000000000000002,-0.048
1670355674.559962,-9.708,-0.122,3.778,-0.6354000000000001,-0.39430000000000004,0.322,0.015,0.023,-0.046
1670355674.599962,-9.708,-0.076,3.793,-0.6354000000000001,-0.3965,0.31420000000000003,0.008,0.028,-0.042
1670355674.639962,-9.715,-0.076,3.793,-0.6487,-0.3965,0.31420000000000003,0.016,0.019,-0.045
1670355674.679962,-9.759,-0.078,3.746,-0.6372,-0.39630000000000004,0.3123,0.018000000000000002,0.025,-0.051000000000000004
1670355674.719962,-9.739,-0.11900000000000001,3.7760000000000002,-0.638,-0.396,0.3161,0.007,0.021,-0.048
1670355674.759962,-9.716000000000001,-0.1,3.739,-0.6338,-0.39540000000000003,0.3393,0.005,0.014,-0.048
1670355674.799962,-9.743,-0.093,3.763,-0.6367,-0.3966,0.328,0.0,0.011,-0.049
1670355674.839962,-9.745000000000001,-0.09,3.771,-0.6349,-0.3925,0.3211,0.002,0.014,-0.054
1670355674.879962,-9.744,-0.10300000000000001,3.8040000000000003,-0.6339,-0.39390000000000003,0.3231,0.0,0.019,-0.064
1670355674.919962,-9.729000000000001,-0.123,3.769,-0.6375000000000001,-0.39080000000000004,0.3205,-0.001,0.012,-0.057
1670355674.959962,-9.703,-0.114,3.818,-0.635,-0.3952,0.3219,0.0,0.013000000000000001,-0.054
1670355674.999962,-9.739,-0.116,3.797,-0.6331,-0.3929,0.3252,0.003,0.019,-0.056
1670355675.039962,-9.741,-0.126,3.819,-0.6374000000000001,-0.3934,0.32120000000000004,0.002,0.021,-0.055
1670355675.079962,-9.715,-0.137,3.805,-0.6351,-0.39480000000000004,0.32080000000000003,0.004,0.013000000000000001,-0.051000000000000004
1670355675.119962,-9.746,-0.167,3.797,-0.6369,-0.39080000000000004,0.3234,-0.002,0.02,-0.05
1670355675.159962,-9.765,-0.121,3.838,-0.6355000000000001,-0.3906,0.32270000000000004,0.009000000000000001,0.022,-0.043000000000000003
1670355675.199962,-9.793000000000001,-0.092,3.818,-0.6369,-0.39280000000000004,0.3219,0.01,0.031,-0.047
1670355675.239962,-9.709,-0.14300000000000002,3.754,-0.6358,-0.3947,0.3224,0.003,0.027,-0.056
1670355675.279962,-9.713000000000001,-0.128,3.736,-0.6336,-0.3921,0.32170000000000004,0.004,0.018000000000000002,-0.047
1670355675.319962,-9.748,-0.083,3.798,-0.6368,-0.3957,0.3205,0.015,0.01,-0.051000000000000004
1670355675.359962,-9.758000000000001,-0.105,3.826,-0.6341,-0.39380000000000004,0.32170000000000004,0.012,0.017,-0.053
1670355675.399961,-9.767,-0.134,3.802,-0.6357,-0.39430000000000004,0.321,0.012,0.008,-0.05
1670355675.439961,-9.694,-0.171,3.811,-0.6376000000000001,-0.394,0.32120000000000004,0.002,0.016,-0.053
1670355675.479961,-9.754,-0.04,3.794,-0.6328,-0.3929,0.32380000000000003,0.01,0.016,-0.047
1670355675.5199609,-9.745000000000001,-0.167,3.798,-0.6357,-0.39330000000000004,0.32080000000000003,0.005,0.016,-0.052000000000000005
1670355675.559961,-9.722,-0.124,3.7920000000000003,-0.6343,-0.3924,0.3201,0.002,0.018000000000000002,-0.044
1670355675.599961,-9.709,-0.088,3.748,-0.6311,-0.39380000000000004,0.3209,0.002,0.018000000000000002,-0.043000000000000003
1670355675.639961,-9.749,-0.08600000000000001,3.761,-0.6337,-0.3931,0.32330000000000003,0.006,0.016,-0.059000000000000004
1670355675.679961,-9.75,-0.113,3.7880000000000003,-0.6375000000000001,-0.3955,0.32120000000000004,0.008,0.021,-0.06
1670355675.719961,-9.722,-0.137,3.769,-0.634,-0.39390000000000003,0.3239,0.0,0.017,-0.051000000000000004
1670355675.759961,-9.716000000000001,-0.14,3.762,-0.6352,-0.3922,0.3276,0.0,0.019,-0.052000000000000005
1670355675.799961,-9.74,-0.11,3.757,-0.6386000000000001,-0.3965,0.3209,0.0,0.017,-0.053
1670355675.839961,-9.763,-0.134,3.802,-0.6353,-0.39230000000000004,0.3226,0.004,0.017,-0.052000000000000005
1670355675.799961,-9.74,-0.147,3.809,-0.6337,-0.39130000000000004,0.32370000000000004,0.008,0.018000000000000002,-0.051000000000000004
1670355675.839961,-9.743,-0.158,3.803,-0.6357,-0.3927,0.3214,0.0,0.016,-0.05
1670355675.879961,-9.698,-0.12,3.7880000000000003,-0.6377,-0.3925,0.3234,0.004,0.014,-0.052000000000000005
1670355675.919961,-9.764,-0.12,3.7840000000000003,-0.6351,-0.3926,0.3221,0.009000000000000001,0.018000000000000002,-0.046
1670355675.959961,-9.722,-0.135,3.798,-0.6366,-0.3916,0.321,0.013000000000000001,0.017,-0.052000000000000005
1670355675.999961,-9.724,-0.133,3.801,-0.6371,-0.3932,0.3235,0.004,0.025,-0.055
1670355676.039961,-9.669,-0.133,3.7640000000000002,-0.6339,-0.3937,0.3244,-0.003,0.004,-0.05
1670355676.079961,-9.744,-0.051000000000000004,3.737,-0.6351,-0.3952,0.3236,0.006,0.017,-0.043000000000000003
1670355676.119961,-9.782,-0.184,3.782,-0.6377,-0.39380000000000004,0.3205,0.016,0.017,-0.056
1670355676.159961,-9.736,-0.108,3.771,-0.6319,-0.39440000000000003,0.3256,0.001,0.021,-0.048
1670355676.199961,-9.714,-0.122,3.733,-0.633,-0.3935,0.32170000000000004,-0.003,0.004,-0.038
1670355676.239961,-9.731,-0.084,3.7800000000000002,-0.636,-0.39640000000000003,0.323,0.01,0.009000000000000001,-0.056
1670355676.279961,-9.723,-0.124,3.813,-0.6357,-0.3925,0.323,0.021,0.011,-0.058
1670355676.319961,-9.71,-0.155,3.785,-0.6367,-0.3935,0.3235,0.01,0.014,-0.049
1670355676.359961,-9.703,-0.129,3.8040000000000003,-0.6357,-0.3965,0.3189,-0.004,0.012,-0.047
1670355676.399961,-9.769,-0.11,3.813,-0.6346,-0.3947,0.32080000000000003,0.001,0.016,-0.047
1670355676.43996,-9.731,-0.099,3.839,-0.6343,-0.3941,0.3231,0.002,0.021,-0.051000000000000004
1670355676.47996,-9.712,-0.10400000000000001,3.782,-0.6391,-0.3937,0.322,0.005,0.027,-0.048
1670355676.51996,-9.717,-0.099,3.8040000000000003,-0.6363,-0.3942,0.3261,0.005,0.018000000000000002,-0.044
1670355676.55996,-9.751,-0.099,3.746,-0.6327,-0.39530000000000004,0.3214,0.008,0.011,-0.048
1670355676.59996,-9.753,-0.137,3.7840000000000003,-0.6425000000000001,-0.3955,0.32230000000000003,0.013000000000000001,0.018000000000000002,-0.052000000000000005
1670355676.63996,-9.72,-0.123,3.754,-0.6346,-0.39430000000000004,0.32130000000000003,0.0,0.018000000000000002,-0.053
1670355676.67996,-9.731,-0.105,3.8080000000000003,-0.6387,-0.3947,0.33190000000000003,-0.004,0.016,-0.053
1670355676.71996,-9.736,-0.112,3.778,-0.6371,-0.395,0.3179,-0.002,0.012,-0.059000000000000004
1670355676.75996,-9.736,-0.137,3.782,-0.6371,-0.395,0.3145,0.002,0.019,-0.055
1670355676.79996,-9.739,-0.137,3.782,-0.6347,-0.3941,0.3145,0.005,0.016,-0.056
1670355676.83996,-9.736,-0.12,3.803,-0.6373,-0.39440000000000003,0.3294,0.003,0.016,-0.046
1670355676.87996,-9.695,-0.11900000000000001,3.802,-0.638,-0.3937,0.3205,0.0,0.015,-0.048
1670355676.91996,-9.701,-0.126,3.799,-0.6352,-0.3946,0.3109,0.008,0.016,-0.052000000000000005
1670355676.95996,-9.732,-0.12,3.7880000000000003,-0.6348,-0.3935,0.3264,0.009000000000000001,0.015,-0.053
1670355676.99996,-9.766,-0.107,3.834,-0.6368,-0.3914,0.32080000000000003,0.009000000000000001,0.019,-0.051000000000000004
1670355677.03996,-9.706,-0.126,3.806,-0.6344000000000001,-0.3936,0.321,0.002,0.017,-0.055
1670355677.07996,-9.689,-0.14100000000000001,3.7920000000000003,-0.6347,-0.393,0.3244,-0.002,0.013000000000000001,-0.052000000000000005
1670355677.11996,-9.762,-0.089,3.783,-0.6367,-0.3942,0.32270000000000004,0.011,0.022,-0.045
1670355677.15996,-9.81,-0.097,3.801,-0.6364000000000001,-0.3935,0.3214,-0.003,0.032,-0.055
1670355677.19996,-9.685,-0.117,3.813,-0.6334000000000001,-0.39430000000000004,0.3255,-0.001,0.022,-0.052000000000000005
1670355677.23996,-9.672,-0.135,3.7600000000000002,-0.6362,-0.3941,0.3245,-0.001,0.006,-0.045
1670355677.27996,-9.732,-0.078,3.754,-0.6335000000000001,-0.39330000000000004,0.32080000000000003,0.005,0.011,-0.052000000000000005
1670355677.31996,-9.75,-0.116,3.7680000000000002,-0.6353,-0.39490000000000003,0.32270000000000004,0.008,0.015,-0.053
1670355677.35996,-9.747,-0.14300000000000002,3.799,-0.636,-0.3921,0.3242,0.006,0.015,-0.052000000000000005
1670355677.39996,-9.733,-0.166,3.845,-0.636,-0.3934,0.32020000000000004,-0.007,0.022,-0.044
1670355677.43996,-9.749,-0.065,3.834,-0.6336,-0.39390000000000003,0.3269,0.006,0.019,-0.055
1670355677.479959,-9.739,-0.161,3.827,-0.6354000000000001,-0.393,0.324,0.004,0.023,-0.055
1670355677.519959,-9.675,-0.139,3.8160000000000003,-0.6343,-0.3931,0.3189,0.003,0.018000000000000002,-0.042
1670355677.559959,-9.731,-0.10200000000000001,3.8000000000000003,-0.6336,-0.39130000000000004,0.3194,0.008,0.018000000000000002,-0.046
1670355677.599959,-9.764,-0.092,3.7800000000000002,-0.6336,-0.39230000000000004,0.32430000000000003,0.017,0.016,-0.059000000000000004
1670355677.639959,-9.748,-0.134,3.775,-0.6342,-0.3947,0.3246,0.011,0.023,-0.052000000000000005
1670355677.679959,-9.727,-0.192,3.794,-0.6341,-0.3925,0.3219,-0.04,0.042,-0.023
1670355677.719959,-9.739,-0.084,3.717,-0.6371,-0.3925,0.3249,-0.014,0.024,-0.042
1670355677.759959,-9.74,-0.138,3.787,-0.6378,-0.39330000000000004,0.32780000000000004,0.029,0.016,-0.052000000000000005
1670355677.799959,-9.751,-0.11,3.779,-0.633,-0.3927,0.3205,0.034,0.02,-0.053
1670355677.839959,-9.749,-0.125,3.753,-0.6348,-0.3956,0.32220000000000004,0.038,-0.009000000000000001,-0.068
1670355677.879959,-9.734,-0.123,3.849,-0.6337,-0.3942,0.3215,0.027,0.007,-0.053
1670355677.919959,-9.688,-0.117,3.803,-0.6353,-0.39540000000000003,0.32220000000000004,0.02,0.007,-0.045
1670355677.959959,-9.778,-0.116,3.781,-0.6355000000000001,-0.3946,0.32680000000000003,0.009000000000000001,0.015,-0.045
1670355677.999959,-9.725,-0.052000000000000005,3.8040000000000003,-0.636,-0.39380000000000004,0.32270000000000004,0.017,0.018000000000000002,-0.059000000000000004
1670355678.039959,-9.711,-0.109,3.813,-0.6347,-0.39390000000000003,0.31980000000000003,0.011,0.017,-0.053
1670355678.079959,-9.728,-0.101,3.803,-0.6336,-0.39280000000000004,0.32280000000000003,0.001,0.016,-0.056
1670355678.119959,-9.673,-0.128,3.779,-0.6354000000000001,-0.39480000000000004,0.3219,-0.01,0.014,-0.053
1670355678.159959,-9.773,-0.069,3.787,-0.6349,-0.39490000000000003,0.3231,0.002,0.021,-0.048
1670355678.199959,-9.784,-0.15,3.789,-0.635,-0.3911,0.32380000000000003,0.007,0.032,-0.055
1670355678.239959,-9.702,-0.108,3.762,-0.6356,-0.395,0.3254,-0.003,0.03,-0.052000000000000005
1670355678.279959,-9.713000000000001,-0.126,3.7720000000000002,-0.6358,-0.3952,0.3225,-0.009000000000000001,0.025,-0.045
1670355678.319959,-9.738,-0.099,3.798,-0.6317,-0.39230000000000004,0.3241,0.0,0.018000000000000002,-0.052000000000000005
1670355678.359959,-9.747,-0.12,3.821,-0.6342,-0.39330000000000004,0.3256,0.01,0.02,-0.057
1670355678.3999588,-9.722,-0.156,3.766,-0.6353,-0.3932,0.32370000000000004,0.003,0.019,-0.055
1670355678.439959,-9.703,-0.123,3.7960000000000003,-0.6338,-0.3929,0.3229,-0.004,0.019,-0.055
1670355678.479959,-9.782,-0.11800000000000001,3.83,-0.6351,-0.3905,0.32380000000000003,0.007,0.022,-0.044
1670355678.519958,-9.748,-0.107,3.807,-0.6363,-0.3926,0.3234,0.008,0.022,-0.047
1670355678.559958,-9.716000000000001,-0.11900000000000001,3.81,-0.6336,-0.3935,0.32330000000000003,0.008,0.021,-0.047
1670355678.599958,-9.731,-0.096,3.778,-0.6347,-0.3936,0.3226,0.013000000000000001,0.014,-0.051000000000000004
1670355678.639958,-9.757,-0.101,3.767,-0.6335000000000001,-0.3946,0.32320000000000004,0.015,0.013000000000000001,-0.051000000000000004
1670355678.679958,-9.733,-0.128,3.7560000000000002,-0.6344000000000001,-0.39390000000000003,0.32020000000000004,0.009000000000000001,0.019,-0.054
1670355678.719958,-9.725,-0.112,3.763,-0.6364000000000001,-0.39330000000000004,0.3224,-0.003,0.011,-0.053
1670355678.759958,-9.715,-0.116,3.743,-0.6345000000000001,-0.3955,0.3244,0.001,0.014,-0.051000000000000004
1670355678.799958,-9.742,-0.117,3.785,-0.6362,-0.393,0.3244,0.0,0.015,-0.055
1670355678.839958,-9.744,-0.126,3.759,-0.6338,-0.3936,0.3245,0.005,0.015,-0.053
1670355678.879958,-9.724,-0.122,3.783,-0.6337,-0.39480000000000004,0.3236,0.003,0.016,-0.053
1670355678.919958,-9.73,-0.14400000000000002,3.7840000000000003,-0.638,-0.39480000000000004,0.3375,0.001,0.016,-0.052000000000000005
1670355678.959958,-9.744,-0.123,3.794,-0.6343,-0.39330000000000004,0.3245,0.007,0.014,-0.05
1670355678.999958,-9.744,-0.113,3.7720000000000002,-0.6343,-0.39380000000000004,0.32680000000000003,0.007,0.012,-0.052000000000000005
1670355679.039958,-9.759,-0.113,3.7720000000000002,-0.6344000000000001,-0.39380000000000004,0.32680000000000003,0.01,0.021,-0.05
1670355679.079958,-9.724,-0.113,3.801,-0.639,-0.3936,0.3247,0.01,0.018000000000000002,-0.052000000000000005
1670355679.119958,-9.733,-0.125,3.8320000000000003,-0.6357,-0.39430000000000004,0.3325,0.001,0.025,-0.054
1670355679.159958,-9.683,-0.126,3.769,-0.6424000000000001,-0.3936,0.33380000000000004,0.001,0.021,-0.05
1670355679.1999578,-9.729000000000001,-0.075,3.774,-0.639,-0.3945,0.3215,0.013000000000000001,0.019,-0.055
1670355679.239958,-9.756,-0.162,3.795,-0.6347,-0.3934,0.323,-0.001,0.025,-0.055
1670355679.279958,-9.718,-0.108,3.7720000000000002,-0.6341,-0.3927,0.32280000000000003,-0.008,0.009000000000000001,-0.045
1670355679.319958,-9.676,-0.14100000000000001,3.7800000000000002,-0.6339,-0.3927,0.3183,-0.003,0.001,-0.056
1670355679.359958,-9.73,-0.107,3.7800000000000002,-0.6344000000000001,-0.3947,0.3206,0.014,0.006,-0.056
1670355679.399958,-9.738,-0.14,3.7760000000000002,-0.6357,-0.3951,0.3206,0.012,0.009000000000000001,-0.053
1670355679.4399579,-9.719,-0.148,3.821,-0.6415000000000001,-0.39730000000000004,0.3294,0.004,0.01,-0.052000000000000005
1670355679.479958,-9.703,-0.146,3.814,-0.633,-0.39430000000000004,0.32220000000000004,0.001,0.011,-0.042
1670355679.519958,-9.78,-0.126,3.864,-0.6466000000000001,-0.3955,0.328,0.01,0.011,-0.041
1670355679.559958,-9.728,-0.12,3.86,-0.6382,-0.39440000000000003,0.32170000000000004,0.002,0.023,-0.053
1670355679.599958,-9.716000000000001,-0.124,3.7960000000000003,-0.635,-0.3966,0.3242,0.009000000000000001,0.01,-0.044
1670355679.639957,-9.682,-0.10300000000000001,3.783,-0.6357,-0.3932,0.3252,0.015,0.014,-0.049
1670355679.679957,-9.751,-0.088,3.807,-0.634,-0.39380000000000004,0.3224,0.01,0.017,-0.047
1670355679.719957,-9.718,-0.122,3.807,-0.6345000000000001,-0.3934,0.3214,0.005,0.021,-0.049
1670355679.759957,-9.715,-0.111,3.809,-0.6355000000000001,-0.3942,0.32580000000000003,-0.001,0.02,-0.049
1670355679.799957,-9.723,-0.092,3.7800000000000002,-0.637,-0.395,0.3231,0.0,0.017,-0.055
1670355679.839957,-9.734,-0.112,3.817,-0.6366,-0.39440000000000003,0.3249,0.0,0.018000000000000002,-0.054
1670355679.879957,-9.732,-0.11900000000000001,3.799,-0.6335000000000001,-0.3937,0.3271,0.004,0.017,-0.049
1670355679.919957,-9.72,-0.12,3.8000000000000003,-0.6358,-0.3946,0.323,-0.001,0.015,-0.05
1670355679.959957,-9.731,-0.126,3.805,-0.6353,-0.3946,0.322,0.0,0.012,-0.055
1670355679.9999568,-9.729000000000001,-0.125,3.7960000000000003,-0.6352,-0.39080000000000004,0.3247,0.002,0.021,-0.043000000000000003
1670355680.039957,-9.764,-0.107,3.8000000000000003,-0.6354000000000001,-0.3932,0.322,0.001,0.024,-0.05
1670355680.079957,-9.708,-0.116,3.826,-0.6352,-0.394,0.323,0.008,0.02,-0.054
1670355680.119957,-9.718,-0.131,3.793,-0.6341,-0.3921,0.32380000000000003,-0.001,0.018000000000000002,-0.042
1670355680.159957,-9.73,-0.108,3.7920000000000003,-0.6342,-0.3932,0.3229,0.0,0.011,-0.051000000000000004
1670355680.199957,-9.769,-0.077,3.766,-0.6336,-0.3932,0.32170000000000004,0.01,0.017,-0.053
1670355680.2399569,-9.736,-0.179,3.731,-0.6338,-0.3922,0.32130000000000003,0.0,0.025,-0.054
1670355680.279957,-9.699,-0.067,3.731,-0.6344000000000001,-0.3945,0.32370000000000004,-0.004,0.011,-0.047
1670355680.319957,-9.721,-0.093,3.765,-0.6361,-0.3935,0.3249,0.003,0.007,-0.051000000000000004
1670355680.359957,-9.759,-0.134,3.791,-0.6359,-0.3925,0.32320000000000004,0.007,0.01,-0.058
1670355680.399957,-9.745000000000001,-0.147,3.801,-0.6361,-0.3936,0.324,0.006,0.012,-0.054
1670355680.439957,-9.652000000000001,-0.176,3.819,-0.6357,-0.3922,0.3214,-0.003,0.01,-0.052000000000000005
1670355680.4799569,-9.642,-0.097,3.8080000000000003,-0.6347,-0.3922,0.3229,0.0,0.012,-0.047
1670355680.519957,-9.774000000000001,-0.202,3.807,-0.6361,-0.3947,0.3211,0.003,0.026000000000000002,-0.046
1670355680.559957,-9.735,-0.10200000000000001,3.7960000000000003,-0.6347,-0.3919,0.322,0.003,0.026000000000000002,-0.044
1670355680.599957,-9.693,-0.126,3.805,-0.6341,-0.3922,0.32230000000000003,-0.002,0.019,-0.038
1670355680.639957,-9.733,-0.08,3.766,-0.6328,-0.39280000000000004,0.3225,0.005,0.018000000000000002,-0.05
1670355680.679956,-9.734,-0.106,3.754,-0.6357,-0.3936,0.32320000000000004,0.011,0.015,-0.048
1670355680.719956,-9.747,-0.132,3.7800000000000002,-0.6361,-0.3957,0.326,0.003,0.018000000000000002,-0.048
1670355680.759956,-9.718,-0.116,3.7760000000000002,-0.6386000000000001,-0.3955,0.3269,-0.003,0.017,-0.049
1670355680.7999558,-9.743,-0.126,3.8120000000000003,-0.6346,-0.3926,0.32320000000000004,-0.009000000000000001,0.013000000000000001,-0.053
1670355680.839956,-9.737,-0.116,3.7920000000000003,-0.6357,-0.3942,0.3236,-0.005,0.014,-0.054
1670355680.879956,-9.726,-0.132,3.85,-0.6337,-0.3931,0.3219,-0.002,0.014,-0.052000000000000005
1670355680.919956,-9.689,-0.14300000000000002,3.8080000000000003,-0.6354000000000001,-0.3935,0.3257,0.0,0.018000000000000002,-0.053
1670355680.959956,-9.713000000000001,-0.14300000000000002,3.84,-0.6336,-0.39230000000000004,0.3216,0.003,0.013000000000000001,-0.045
1670355680.999956,-9.745000000000001,-0.132,3.8120000000000003,-0.6386000000000001,-0.3926,0.32270000000000004,0.011,0.025,-0.051000000000000004
1670355681.0399559,-9.692,-0.117,3.801,-0.635,-0.3922,0.3225,0.008,0.022,-0.047
1670355681.079956,-9.728,-0.108,3.789,-0.6367,-0.3925,0.3216,0.016,0.022,-0.049
1670355681.119956,-9.693,-0.158,3.7920000000000003,-0.6326,-0.3936,0.3264,0.007,0.024,-0.049
1670355681.159956,-9.792,-0.117,3.817,-0.6347,-0.3922,0.3252,0.007,0.021,-0.055
1670355681.199956,-9.799,-0.121,3.8080000000000003,-0.6358,-0.3931,0.33,0.016,0.018000000000000002,-0.045
1670355681.239956,-9.706,-0.122,3.746,-0.6335000000000001,-0.39330000000000004,0.3186,0.001,0.025,-0.046
1670355681.2799559,-9.706,-0.122,3.7720000000000002,-0.6335000000000001,-0.39330000000000004,0.336,0.002,0.017,-0.048
1670355681.319956,-9.701,-0.108,3.7720000000000002,-0.6361,-0.3931,0.336,0.007,0.006,-0.052000000000000005
1670355681.359956,-9.726,-0.096,3.7840000000000003,-0.6386000000000001,-0.39430000000000004,0.3195,0.014,0.006,-0.058
1670355681.399956,-9.736,-0.113,3.809,-0.6367,-0.3941,0.32220000000000004,0.01,0.008,-0.05
1670355681.439956,-9.699,-0.14,3.8120000000000003,-0.6372,-0.3942,0.33490000000000003,0.005,0.001,-0.055
1670355681.479956,-9.74,-0.113,3.8360000000000003,-0.6352,-0.3947,0.3244,0.013000000000000001,0.004,-0.05
