timestamp,acc_x,acc_y,acc_z,magn_x,magn_y,magn_z,gyro_x,gyro_y,gyro_z
1670356785.16,-9.259,-0.192,4.792,-0.6537000000000001,-0.3886,0.373,0.001,0.014,-0.047
1670356785.2,-9.203,-0.17,4.777,-0.6568,-0.3885,0.37420000000000003,0.009000000000000001,0.02,-0.05
1670356785.24,-9.245000000000001,-0.188,4.765,-0.653,-0.3856,0.37770000000000004,0.015,0.022,-0.049
1670356785.28,-9.243,-0.193,4.761,-0.6529,-0.3876,0.3753,0.014,0.025,-0.053
1670356785.32,-9.212,-0.177,4.801,-0.6546000000000001,-0.39030000000000004,0.3744,-0.001,0.023,-0.054
1670356785.36,-9.211,-0.188,4.746,-0.6532,-0.3906,0.3768,-0.01,0.022,-0.045
1670356785.4,-9.247,-0.145,4.783,-0.6507000000000001,-0.3844,0.3763,0.003,0.021,-0.046
1670356785.44,-9.259,-0.24,4.756,-0.654,-0.38580000000000003,0.37220000000000003,0.005,0.024,-0.06
1670356785.48,-9.178,-0.14,4.734,-0.6541,-0.38880000000000003,0.37510000000000004,-0.006,0.021,-0.057
1670356785.52,-9.213000000000001,-0.186,4.673,-0.6554,-0.3891,0.383,-0.007,0.016,-0.048
1670356785.559999,-9.256,-0.18,4.779,-0.6529,-0.3886,0.37420000000000003,0.006,0.006,-0.052000000000000005
1670356785.599999,-9.255,-0.193,4.808,-0.6505000000000001,-0.38630000000000003,0.376,0.011,0.008,-0.063
1670356785.639999,-9.245000000000001,-0.28600000000000003,4.779,-0.6505000000000001,-0.3874,0.37460000000000004,-0.002,0.007,-0.056
1670356785.6799989,-9.218,-0.156,4.746,-0.6535000000000001,-0.3861,0.3729,0.002,0.02,-0.04
1670356785.719999,-9.255,-0.221,4.797,-0.6559,-0.3875,0.37510000000000004,0.009000000000000001,0.024,-0.049
1670356785.759999,-9.205,-0.171,4.744,-0.6538,-0.3864,0.37670000000000003,0.012,0.027,-0.053
1670356785.799999,-9.202,-0.196,4.748,-0.6543,-0.38920000000000005,0.3786,0.014,0.016,-0.047
1670356785.839999,-9.247,-0.164,4.774,-0.6539,-0.3895,0.3735,0.004,0.013000000000000001,-0.054
1670356785.879999,-9.268,-0.17300000000000001,4.791,-0.6526000000000001,-0.38830000000000003,0.375,0.015,0.012,-0.055
1670356785.919999,-9.253,-0.201,4.747,-0.6532,-0.39,0.37410000000000004,0.004,0.011,-0.052000000000000005
1670356785.959999,-9.244,-0.17500000000000002,4.764,-0.6557000000000001,-0.3881,0.3738,0.002,0.019,-0.052000000000000005
1670356785.999999,-9.221,-0.17500000000000002,4.752,-0.6525000000000001,-0.38720000000000004,0.3745,0.004,0.028,-0.056
1670356786.039999,-9.25,-0.20400000000000001,4.768,-0.6555000000000001,-0.38820000000000005,0.3755,0.009000000000000001,0.027,-0.054
1670356786.079999,-9.233,-0.199,4.8,-0.655,-0.38830000000000003,0.3734,0.003,0.02,-0.056
1670356786.119999,-9.224,-0.20700000000000002,4.792,-0.6523,-0.3869,0.37510000000000004,0.003,0.016,-0.046
1670356786.159999,-9.24,-0.17,4.7620000000000005,-0.654,-0.3856,0.37370000000000003,0.007,0.019,-0.052000000000000005
1670356786.199999,-9.253,-0.178,4.728,-0.6531,-0.3871,0.3738,0.016,0.02,-0.049
1670356786.239999,-9.257,-0.17500000000000002,4.757,-0.6541,-0.3869,0.3766,0.013000000000000001,0.021,-0.056
1670356786.279999,-9.248,-0.17,4.744,-0.6528,-0.38780000000000003,0.3769,0.01,0.028,-0.051000000000000004
1670356786.319999,-9.219,-0.20400000000000001,4.748,-0.6521,-0.39030000000000004,0.37470000000000003,-0.003,0.023,-0.055
1670356786.359999,-9.254,-0.15,4.758,-0.6538,-0.3874,0.37470000000000003,0.001,0.028,-0.034
1670356786.399999,-9.307,-0.2,4.747,-0.6529,-0.3885,0.3745,0.009000000000000001,0.033,-0.055
1670356786.439999,-9.22,-0.153,4.739,-0.653,-0.38930000000000003,0.373,0.002,0.03,-0.061
1670356786.479999,-9.235,-0.21,4.707,-0.6524,-0.3875,0.37510000000000004,-0.009000000000000001,0.022,-0.046
1670356786.519999,-9.261000000000001,-0.164,4.746,-0.6529,-0.38630000000000003,0.3758,0.0,0.024,-0.051000000000000004
1670356786.559999,-9.26,-0.158,4.73,-0.6559,-0.3866,0.37260000000000004,0.011,0.017,-0.059000000000000004
1670356786.599998,-9.25,-0.252,4.765,-0.6539,-0.3875,0.3753,0.007,0.02,-0.063
1670356786.639998,-9.208,-0.16,4.721,-0.6531,-0.3885,0.3734,-0.002,0.021,-0.044
1670356786.679998,-9.285,-0.223,4.708,-0.6552,-0.3886,0.37420000000000003,0.001,0.027,-0.051000000000000004
1670356786.719998,-9.239,-0.131,4.718,-0.6513,-0.3865,0.3766,0.007,0.026000000000000002,-0.05
1670356786.759998,-9.243,-0.177,4.745,-0.6528,-0.3885,0.3766,0.016,0.026000000000000002,-0.048
1670356786.799998,-9.251,-0.162,4.721,-0.6533,-0.38870000000000005,0.36970000000000003,0.0,0.019,-0.046
1670356786.839998,-9.296,-0.155,4.734,-0.6566000000000001,-0.38830000000000003,0.3748,0.015,0.011,-0.06
1670356786.879998,-9.268,-0.2,4.74,-0.6539,-0.3905,0.37310000000000004,0.01,0.011,-0.056
1670356786.919998,-9.253,-0.162,4.741,-0.6572,-0.38830000000000003,0.3851,-0.003,0.013000000000000001,-0.049
1670356786.959998,-9.269,-0.184,4.764,-0.6529,-0.3885,0.3759,-0.006,0.024,-0.05
1670356786.999998,-9.269,-0.168,4.765,-0.6529,-0.39,0.35950000000000004,0.002,0.026000000000000002,-0.055
1670356787.039998,-9.261000000000001,-0.168,4.765,-0.6548,-0.39,0.35950000000000004,0.007,0.026000000000000002,-0.055
1670356787.079998,-9.251,-0.20700000000000002,4.736,-0.6538,-0.3869,0.3749,0.0,0.024,-0.056
1670356787.119998,-9.248,-0.193,4.749,-0.6524,-0.3885,0.38630000000000003,0.002,0.023,-0.048
1670356787.159998,-9.263,-0.17200000000000001,4.742,-0.6548,-0.3866,0.3608,0.009000000000000001,0.02,-0.055
1670356787.199998,-9.28,-0.178,4.742,-0.6544,-0.3881,0.3714,0.015,0.018000000000000002,-0.049
1670356787.239998,-9.278,-0.155,4.702,-0.6543,-0.3889,0.373,0.007,0.025,-0.052000000000000005
1670356787.279998,-9.276,-0.17400000000000002,4.696,-0.6546000000000001,-0.3875,0.3739,0.007,0.02,-0.056
1670356787.319998,-9.218,-0.23900000000000002,4.715,-0.6547000000000001,-0.3911,0.375,0.0,0.01,-0.046
1670356787.359998,-9.281,-0.158,4.739,-0.6548,-0.38820000000000005,0.37420000000000003,0.006,0.009000000000000001,-0.032
1670356787.399998,-9.32,-0.131,4.729,-0.6533,-0.3874,0.375,0.014,0.016,-0.058
1670356787.439998,-9.235,-0.194,4.7,-0.655,-0.389,0.37270000000000003,0.005,0.02,-0.064
1670356787.479998,-9.249,-0.233,4.687,-0.6521,-0.38830000000000003,0.37170000000000003,-0.007,0.015,-0.037
1670356787.519998,-9.262,-0.156,4.764,-0.6527000000000001,-0.3912,0.3834,-0.004,0.018000000000000002,-0.046
1670356787.559998,-9.278,-0.153,4.759,-0.6537000000000001,-0.388,0.37360000000000004,0.016,0.019,-0.058
1670356787.599998,-9.256,-0.201,4.722,-0.6647000000000001,-0.391,0.38070000000000004,0.002,0.015,-0.065
1670356787.639997,-9.236,-0.20700000000000002,4.712,-0.6547000000000001,-0.38920000000000005,0.3748,-0.003,0.009000000000000001,-0.035
1670356787.679997,-9.287,-0.154,4.748,-0.6518,-0.3889,0.3744,0.0,0.023,-0.046
1670356787.719997,-9.288,-0.136,4.721,-0.655,-0.3874,0.375,0.009000000000000001,0.02,-0.056
1670356787.759997,-9.218,-0.186,4.7010000000000005,-0.6545000000000001,-0.3902,0.381,0.009000000000000001,0.017,-0.044
1670356787.799997,-9.237,-0.17200000000000001,4.73,-0.6537000000000001,-0.3889,0.37670000000000003,0.004,0.017,-0.042
1670356787.839997,-9.266,-0.147,4.76,-0.6532,-0.3907,0.37160000000000004,0.011,0.01,-0.056
1670356787.879997,-9.251,-0.188,4.719,-0.6532,-0.3881,0.37510000000000004,0.004,0.013000000000000001,-0.063
1670356787.919997,-9.255,-0.20800000000000002,4.758,-0.6552,-0.38880000000000003,0.3754,-0.005,0.016,-0.047
1670356787.959997,-9.261000000000001,-0.17200000000000001,4.692,-0.6524,-0.3876,0.372,-0.008,0.016,-0.043000000000000003
1670356787.999997,-9.265,-0.177,4.743,-0.6512,-0.391,0.3723,0.004,0.025,-0.053
1670356788.039997,-9.25,-0.193,4.743,-0.653,-0.3876,0.374,0.005,0.022,-0.048
1670356788.079997,-9.263,-0.194,4.743,-0.6552,-0.38570000000000004,0.3729,0.006,0.019,-0.049
1670356788.119997,-9.255,-0.191,4.755,-0.6541,-0.38780000000000003,0.373,0.002,0.015,-0.051000000000000004
1670356788.159997,-9.26,-0.154,4.711,-0.6512,-0.3875,0.376,0.005,0.018000000000000002,-0.047
1670356788.199997,-9.272,-0.171,4.728,-0.6532,-0.3889,0.37360000000000004,0.013000000000000001,0.017,-0.044
1670356788.239997,-9.257,-0.199,4.702,-0.6527000000000001,-0.38780000000000003,0.37370000000000003,0.008,0.017,-0.047
1670356788.279997,-9.263,-0.20700000000000002,4.753,-0.6517000000000001,-0.38880000000000003,0.3759,0.0,0.022,-0.051000000000000004
1670356788.319997,-9.288,-0.167,4.74,-0.6547000000000001,-0.38720000000000004,0.37570000000000003,-0.001,0.022,-0.042
1670356788.359997,-9.294,-0.11,4.774,-0.6539,-0.38880000000000003,0.3723,0.002,0.014,-0.045
1670356788.399997,-9.241,-0.253,4.692,-0.6532,-0.3866,0.373,0.004,0.02,-0.056
1670356788.439997,-9.236,-0.161,4.719,-0.6516000000000001,-0.38670000000000004,0.37310000000000004,0.001,0.022,-0.057
1670356788.479997,-9.272,-0.17500000000000002,4.734,-0.6532,-0.3891,0.374,-0.005,0.017,-0.043000000000000003
1670356788.519997,-9.268,-0.178,4.7700000000000005,-0.6523,-0.38770000000000004,0.37470000000000003,-0.001,0.019,-0.051000000000000004
1670356788.5599968,-9.28,-0.149,4.746,-0.6521,-0.3881,0.37620000000000003,0.028,0.032,-0.067
1670356788.599997,-9.269,-0.295,4.739,-0.6537000000000001,-0.389,0.3728,0.012,0.02,-0.066
1670356788.639997,-9.232,-0.129,4.721,-0.6519,-0.3875,0.3743,-0.007,0.012,-0.04
1670356788.679996,-9.289,-0.193,4.676,-0.6534,-0.3869,0.3714,-0.006,0.016,-0.043000000000000003
1670356788.719996,-9.239,-0.14400000000000002,4.704,-0.653,-0.38530000000000003,0.3725,0.003,0.022,-0.046
1670356788.759996,-9.241,-0.137,4.721,-0.6576000000000001,-0.3902,0.37570000000000003,0.014,0.01,-0.051000000000000004
1670356788.799996,-9.272,-0.165,4.684,-0.6527000000000001,-0.38830000000000003,0.3758,0.016,0.004,-0.06
1670356788.839996,-9.267,-0.20700000000000002,4.738,-0.653,-0.38970000000000005,0.37320000000000003,0.011,0.014,-0.061
1670356788.879996,-9.248,-0.197,4.727,-0.6526000000000001,-0.3861,0.3748,-0.002,0.015,-0.055
1670356788.919996,-9.254,-0.17200000000000001,4.718,-0.6518,-0.3875,0.3733,-0.005,0.018000000000000002,-0.054
1670356788.959996,-9.254,-0.20800000000000002,4.707,-0.6526000000000001,-0.3841,0.3709,-0.002,0.024,-0.05
1670356788.999996,-9.265,-0.199,4.737,-0.6501,-0.3875,0.37360000000000004,0.009000000000000001,0.023,-0.049
1670356789.039996,-9.263,-0.198,4.727,-0.6518,-0.3869,0.3758,0.003,0.023,-0.051000000000000004
1670356789.079996,-9.271,-0.18,4.7250000000000005,-0.651,-0.3881,0.3744,0.007,0.018000000000000002,-0.048
1670356789.119996,-9.255,-0.167,4.696,-0.6522,-0.3886,0.3748,0.013000000000000001,0.022,-0.048
1670356789.159996,-9.248,-0.17200000000000001,4.724,-0.6535000000000001,-0.3881,0.37420000000000003,0.013000000000000001,0.019,-0.052000000000000005
1670356789.199996,-9.271,-0.168,4.756,-0.6565000000000001,-0.387,0.35950000000000004,0.017,0.019,-0.054
1670356789.239996,-9.218,-0.202,4.7170000000000005,-0.6526000000000001,-0.38680000000000003,0.36920000000000003,0.0,0.014,-0.048
1670356789.279996,-9.218,-0.16,4.706,-0.6526000000000001,-0.3876,0.3915,-0.001,0.019,-0.052000000000000005
1670356789.319996,-9.275,-0.16,4.7330000000000005,-0.6543,-0.3876,0.3915,0.012,0.011,-0.058
1670356789.359996,-9.312,-0.178,4.7330000000000005,-0.6535000000000001,-0.38880000000000003,0.3538,0.002,0.022,-0.061
1670356789.399996,-9.257,-0.159,4.699,-0.6552,-0.3884,0.3754,0.0,0.022,-0.057
1670356789.439996,-9.258000000000001,-0.211,4.67,-0.6566000000000001,-0.3876,0.39630000000000004,-0.001,0.019,-0.052000000000000005
1670356789.479996,-9.273,-0.17400000000000002,4.759,-0.6555000000000001,-0.38670000000000004,0.3814,0.007,0.017,-0.055
1670356789.519996,-9.284,-0.17300000000000001,4.734,-0.6527000000000001,-0.3889,0.3739,0.008,0.024,-0.061
1670356789.559996,-9.256,-0.256,4.758,-0.6542,-0.38470000000000004,0.37360000000000004,0.003,0.019,-0.051000000000000004
1670356789.5999959,-9.206,-0.178,4.774,-0.655,-0.38830000000000003,0.37620000000000003,0.004,0.022,-0.04
1670356789.639996,-9.286,-0.211,4.686,-0.6526000000000001,-0.3861,0.3733,0.008,0.034,-0.05
1670356789.679996,-9.257,-0.155,4.722,-0.6568,-0.39030000000000004,0.3819,0.013000000000000001,0.03,-0.049
1670356789.719995,-9.246,-0.185,4.714,-0.6609,-0.3881,0.37260000000000004,0.003,0.022,-0.05
1670356789.759995,-9.251,-0.159,4.679,-0.6587000000000001,-0.38830000000000003,0.3745,0.004,0.016,-0.048
1670356789.799995,-9.285,-0.146,4.715,-0.6527000000000001,-0.3884,0.3718,0.011,0.012,-0.058
1670356789.839995,-9.269,-0.20500000000000002,4.7170000000000005,-0.6521,-0.3884,0.3728,0.003,0.012,-0.052000000000000005
1670356789.879995,-9.266,-0.196,4.703,-0.6535000000000001,-0.38830000000000003,0.3745,-0.006,0.011,-0.053
1670356789.919995,-9.27,-0.177,4.707,-0.6542,-0.38780000000000003,0.37370000000000003,0.001,0.015,-0.052000000000000005
1670356789.959995,-9.282,-0.186,4.714,-0.6533,-0.3874,0.3718,0.009000000000000001,0.018000000000000002,-0.059000000000000004
1670356789.999995,-9.273,-0.203,4.715,-0.6528,-0.3875,0.37110000000000004,0.004,0.021,-0.058
1670356790.039995,-9.242,-0.20400000000000001,4.73,-0.6535000000000001,-0.38680000000000003,0.3714,0.003,0.014,-0.047
1670356790.079995,-9.255,-0.186,4.757,-0.6536000000000001,-0.38830000000000003,0.3728,0.007,0.01,-0.049
1670356790.119995,-9.265,-0.169,4.751,-0.6543,-0.3861,0.374,0.015,0.012,-0.054
1670356790.159995,-9.224,-0.193,4.727,-0.6496000000000001,-0.38770000000000004,0.3759,0.007,0.008,-0.044
1670356790.199995,-9.252,-0.169,4.76,-0.6545000000000001,-0.388,0.372,0.006,0.012,-0.031
1670356790.239995,-9.3,-0.194,4.722,-0.6535000000000001,-0.3884,0.37370000000000003,0.012,0.021,-0.052000000000000005
1670356790.279995,-9.246,-0.149,4.689,-0.654,-0.38770000000000004,0.37220000000000003,0.008,0.028,-0.055
1670356790.319995,-9.264,-0.22,4.735,-0.6545000000000001,-0.38830000000000003,0.3744,-0.001,0.011,-0.039
1670356790.359995,-9.245000000000001,-0.171,4.745,-0.6561,-0.387,0.3729,-0.003,0.01,-0.053
1670356790.3999949,-9.282,-0.155,4.739,-0.6538,-0.3886,0.37360000000000004,0.009000000000000001,0.005,-0.055
1670356790.439995,-9.241,-0.232,4.731,-0.6539,-0.3869,0.3738,0.001,0.011,-0.056
1670356790.479995,-9.205,-0.20500000000000002,4.747,-0.6551,-0.3859,0.37470000000000003,-0.001,0.008,-0.039
1670356790.519995,-9.286,-0.213,4.737,-0.6535000000000001,-0.38670000000000004,0.3739,0.012,0.015,-0.042
1670356790.559995,-9.272,-0.134,4.724,-0.6548,-0.3875,0.37270000000000003,0.019,0.023,-0.051000000000000004
1670356790.599995,-9.229000000000001,-0.164,4.746,-0.6521,-0.3865,0.3718,0.016,0.014,-0.048
1670356790.6399949,-9.244,-0.161,4.727,-0.6541,-0.38820000000000005,0.373,0.01,0.009000000000000001,-0.044
1670356790.679995,-9.271,-0.153,4.737,-0.6496000000000001,-0.3876,0.37360000000000004,0.007,0.011,-0.054
1670356790.719995,-9.278,-0.199,4.7330000000000005,-0.6527000000000001,-0.3881,0.3778,0.005,0.02,-0.06
1670356790.759995,-9.236,-0.183,4.7250000000000005,-0.6539,-0.3891,0.3754,-0.013000000000000001,0.023,-0.049
1670356790.799995,-9.245000000000001,-0.147,4.697,-0.6535000000000001,-0.3861,0.3789,-0.006,0.023,-0.053
1670356790.839994,-9.255,-0.162,4.739,-0.653,-0.3885,0.3744,0.003,0.024,-0.049
1670356790.879994,-9.257,-0.185,4.767,-0.6548,-0.38670000000000004,0.37460000000000004,0.0,0.021,-0.051000000000000004
1670356790.919994,-9.25,-0.181,4.736,-0.6528,-0.3869,0.3738,-0.001,0.015,-0.049
1670356790.959994,-9.26,-0.17500000000000002,4.7330000000000005,-0.6536000000000001,-0.38680000000000003,0.374,-0.002,0.015,-0.047
1670356790.999994,-9.264,-0.16,4.7620000000000005,-0.6549,-0.38780000000000003,0.3734,0.005,0.012,-0.056
1670356791.039994,-9.194,-0.185,4.727,-0.6534,-0.38630000000000003,0.374,0.005,0.008,-0.048
1670356791.079994,-9.238,-0.16,4.752,-0.6511,-0.3864,0.3725,0.0,0.015,-0.044
1670356791.119994,-9.301,-0.196,4.741,-0.6529,-0.38730000000000003,0.3745,0.014,0.027,-0.051000000000000004
1670356791.159994,-9.237,-0.171,4.7090000000000005,-0.6531,-0.38580000000000003,0.375,0.004,0.025,-0.049
1670356791.1999938,-9.21,-0.202,4.718,-0.651,-0.3886,0.37220000000000003,-0.002,0.016,-0.048
1670356791.239994,-9.245000000000001,-0.158,4.739,-0.6557000000000001,-0.3895,0.374,-0.007,0.016,-0.055
1670356791.279994,-9.245000000000001,-0.161,4.779,-0.6538,-0.38880000000000003,0.3729,0.004,0.009000000000000001,-0.059000000000000004
1670356791.319994,-9.224,-0.27,4.743,-0.653,-0.3875,0.374,-0.007,0.012,-0.067
1670356791.359994,-9.172,-0.158,4.757,-0.6525000000000001,-0.38520000000000004,0.37460000000000004,-0.009000000000000001,0.019,-0.048
1670356791.399994,-9.276,-0.234,4.719,-0.6542,-0.38920000000000005,0.377,0.0,0.029,-0.045
1670356791.4399939,-9.221,-0.155,4.765,-0.654,-0.3864,0.3753,0.012,0.027,-0.046
1670356791.479994,-9.22,-0.178,4.748,-0.6557000000000001,-0.38730000000000003,0.383,0.018000000000000002,0.021,-0.05
1670356791.519994,-9.247,-0.186,4.74,-0.6547000000000001,-0.3879,0.3744,0.003,0.02,-0.045
1670356791.559994,-9.247,-0.159,4.748,-0.6581,-0.38770000000000004,0.3725,0.008,0.008,-0.054
1670356791.599994,-9.265,-0.159,4.748,-0.6581,-0.38770000000000004,0.3725,0.004,0.009000000000000001,-0.055
1670356791.639994,-9.242,-0.187,4.761,-0.6574,-0.387,0.3729,-0.004,0.01,-0.053
1670356791.6799939,-9.237,-0.184,4.7620000000000005,-0.6669,-0.391,0.38180000000000003,-0.008,0.015,-0.056
1670356791.719994,-9.257,-0.203,4.755,-0.6543,-0.3875,0.3799,0.003,0.019,-0.054
1670356791.759994,-9.236,-0.187,4.769,-0.6583,-0.388,0.3765,-0.002,0.022,-0.053
1670356791.799994,-9.225,-0.201,4.774,-0.6564,-0.38770000000000004,0.3753,0.0,0.012,-0.05
1670356791.839994,-9.224,-0.191,4.772,-0.6543,-0.38920000000000005,0.37470000000000003,0.004,0.012,-0.052000000000000005
1670356791.879993,-9.248,-0.184,4.738,-0.6532,-0.3844,0.3743,0.011,0.015,-0.051000000000000004
1670356791.919993,-9.198,-0.211,4.787,-0.6523,-0.38470000000000004,0.3745,0.011,0.012,-0.051000000000000004
1670356791.959993,-9.229000000000001,-0.209,4.809,-0.6548,-0.3885,0.37510000000000004,0.007,0.022,-0.051000000000000004
1670356791.9999928,-9.208,-0.177,4.7940000000000005,-0.6555000000000001,-0.38770000000000004,0.37470000000000003,0.013000000000000001,0.023,-0.044
1670356792.039993,-9.242,-0.171,4.772,-0.6532,-0.38670000000000004,0.3734,0.023,0.025,-0.047
1670356792.079993,-9.248,-0.246,4.718,-0.6516000000000001,-0.38980000000000004,0.37560000000000004,0.005,0.026000000000000002,-0.061
1670356792.119993,-9.199,-0.14100000000000001,4.696,-0.654,-0.388,0.3744,0.004,0.014,-0.048
1670356792.159993,-9.248,-0.156,4.714,-0.6534,-0.38580000000000003,0.3733,0.0,0.013000000000000001,-0.048
1670356792.199993,-9.254,-0.158,4.752,-0.6524,-0.3869,0.3724,0.008,0.006,-0.065
1670356792.2399929,-9.27,-0.181,4.7620000000000005,-0.6543,-0.38970000000000005,0.3766,0.011,0.009000000000000001,-0.055
1670356792.279993,-9.290000000000001,-0.232,4.721,-0.6527000000000001,-0.3886,0.374,0.0,0.024,-0.044
1670356792.319993,-9.238,-0.134,4.817,-0.6531,-0.3885,0.37270000000000003,-0.011,0.043000000000000003,-0.028
1670356792.359993,-9.294,-0.14100000000000001,4.721,-0.6523,-0.3874,0.3764,0.021,0.029,-0.048
1670356792.399993,-9.214,-0.17500000000000002,4.7330000000000005,-0.653,-0.3875,0.37420000000000003,0.031,0.021,-0.055
1670356792.439993,-9.239,-0.156,4.731,-0.653,-0.3885,0.37460000000000004,0.032,0.005,-0.057
1670356792.4799929,-9.254,-0.162,4.752,-0.6535000000000001,-0.38920000000000005,0.376,0.023,0.012,-0.049
1670356792.519993,-9.261000000000001,-0.17400000000000002,4.758,-0.6526000000000001,-0.387,0.3754,0.008,0.01,-0.053
1670356792.559993,-9.258000000000001,-0.186,4.748,-0.6526000000000001,-0.3879,0.37310000000000004,-0.003,0.016,-0.052000000000000005
1670356792.599993,-9.267,-0.133,4.795,-0.6535000000000001,-0.39,0.374,0.0,0.013000000000000001,-0.058
1670356792.639993,-9.249,-0.14100000000000001,4.731,-0.6545000000000001,-0.38680000000000003,0.3754,0.011,0.021,-0.056
1670356792.679993,-9.22,-0.169,4.748,-0.6532,-0.3899,0.3739,0.002,0.023,-0.056
1670356792.7199929,-9.241,-0.16,4.73,-0.6568,-0.38720000000000004,0.3778,0.0,0.021,-0.057
1670356792.759993,-9.243,-0.17,4.756,-0.653,-0.388,0.3715,0.001,0.015,-0.057
1670356792.799993,-9.242,-0.17400000000000002,4.781,-0.6538,-0.38770000000000004,0.3739,0.001,0.014,-0.053
1670356792.839993,-9.233,-0.148,4.767,-0.6541,-0.38830000000000003,0.37520000000000003,0.0,0.022,-0.056
1670356792.879993,-9.271,-0.161,4.735,-0.6551,-0.38820000000000005,0.3714,0.01,0.021,-0.059000000000000004
1670356792.919992,-9.256,-0.198,4.758,-0.6551,-0.38830000000000003,0.3718,0.007,0.022,-0.057
1670356792.959992,-9.258000000000001,-0.189,4.731,-0.6491,-0.3879,0.3729,-0.003,0.028,-0.057
1670356792.999992,-9.202,-0.17300000000000001,4.726,-0.6563,-0.38970000000000005,0.374,-0.009000000000000001,0.018000000000000002,-0.052000000000000005
1670356793.0399919,-9.243,-0.158,4.742,-0.6539,-0.388,0.3719,0.0,0.01,-0.042
1670356793.079992,-9.265,-0.259,4.73,-0.6531,-0.387,0.3748,0.007,0.026000000000000002,-0.06
1670356793.119992,-9.227,-0.14400000000000002,4.696,-0.6549,-0.38830000000000003,0.37560000000000004,0.006,0.024,-0.059000000000000004
1670356793.159992,-9.265,-0.211,4.7010000000000005,-0.6538,-0.38620000000000004,0.37060000000000004,-0.002,0.016,-0.045
1670356793.199992,-9.247,-0.17200000000000001,4.745,-0.6534,-0.3865,0.3725,0.008,0.01,-0.052000000000000005
1670356793.239992,-9.282,-0.182,4.776,-0.6536000000000001,-0.38870000000000005,0.37370000000000003,0.009000000000000001,0.015,-0.055
1670356793.2799919,-9.22,-0.257,4.768,-0.6531,-0.38570000000000004,0.3768,0.005,0.016,-0.056
1670356793.319992,-9.195,-0.169,4.763,-0.6527000000000001,-0.38670000000000004,0.3758,-0.001,0.02,-0.05
1670356793.359992,-9.284,-0.252,4.765,-0.6561,-0.38820000000000005,0.37320000000000003,0.008,0.028,-0.051000000000000004
1670356793.399992,-9.253,-0.149,4.71,-0.654,-0.38730000000000003,0.37260000000000004,0.002,0.029,-0.056
1670356793.439992,-9.212,-0.194,4.719,-0.6519,-0.38520000000000004,0.37170000000000003,0.003,0.021,-0.052000000000000005
1670356793.479992,-9.231,-0.17500000000000002,4.728,-0.6549,-0.3861,0.37470000000000003,0.0,0.011,-0.054
1670356793.5199919,-9.252,-0.171,4.752,-0.6508,-0.3876,0.3753,0.004,0.007,-0.066
1670356793.559992,-9.259,-0.222,4.761,-0.6574,-0.38880000000000003,0.3783,0.006,0.006,-0.068
1670356793.599992,-9.241,-0.223,4.751,-0.653,-0.3866,0.37560000000000004,-0.003,0.013000000000000001,-0.056
1670356793.639992,-9.261000000000001,-0.216,4.777,-0.6531,-0.38720000000000004,0.37510000000000004,-0.011,0.009000000000000001,-0.054
1670356793.679992,-9.25,-0.212,4.735,-0.6543,-0.3855,0.374,0.003,0.018000000000000002,-0.053
1670356793.719992,-9.247,-0.233,4.774,-0.657,-0.3864,0.37420000000000003,0.006,0.015,-0.061
1670356793.759992,-9.237,-0.23900000000000002,4.764,-0.656,-0.3874,0.388,0.008,0.016,-0.054
1670356793.799992,-9.245000000000001,-0.20800000000000002,4.755,-0.656,-0.38830000000000003,0.3861,0.005,0.021,-0.044
1670356793.839992,-9.245000000000001,-0.192,4.771,-0.656,-0.38830000000000003,0.36920000000000003,0.015,0.02,-0.048
1670356793.879992,-9.235,-0.192,4.771,-0.6549,-0.3861,0.36920000000000003,0.02,0.015,-0.043000000000000003
1670356793.919992,-9.254,-0.20600000000000002,4.769,-0.6576000000000001,-0.389,0.3654,0.022,0.021,-0.054
1670356793.959991,-9.265,-0.196,4.714,-0.6551,-0.388,0.3794,0.016,0.015,-0.047
1670356793.999991,-9.205,-0.226,4.766,-0.6562,-0.3885,0.3559,0.006,0.02,-0.049
1670356794.039991,-9.275,-0.17200000000000001,4.782,-0.6527000000000001,-0.38580000000000003,0.37260000000000004,0.01,0.014,-0.041
1670356794.0799909,-9.318,-0.158,4.771,-0.6533,-0.38770000000000004,0.3753,0.008,0.033,-0.062
1670356794.119991,-9.219,-0.191,4.721,-0.6544,-0.386,0.37570000000000003,0.001,0.018000000000000002,-0.045
1670356794.159991,-9.24,-0.226,4.702,-0.6524,-0.3861,0.3715,-0.006,0.011,-0.041
1670356794.199991,-9.272,-0.162,4.737,-0.6552,-0.3874,0.37260000000000004,-0.001,0.012,-0.056
1670356794.239991,-9.263,-0.171,4.789,-0.6538,-0.3885,0.37610000000000005,0.006,0.011,-0.059000000000000004
1670356794.279991,-9.239,-0.212,4.796,-0.6518,-0.3864,0.3735,-0.002,0.017,-0.059000000000000004
1670356794.3199909,-9.24,-0.22,4.768,-0.6537000000000001,-0.38770000000000004,0.37310000000000004,0.007,0.009000000000000001,-0.039
1670356794.359991,-9.291,-0.179,4.744,-0.653,-0.3866,0.3735,0.007,0.03,-0.047
1670356794.399991,-9.287,-0.148,4.7250000000000005,-0.6534,-0.38580000000000003,0.3744,0.006,0.03,-0.055
1670356794.439991,-9.219,-0.192,4.74,-0.653,-0.38770000000000004,0.3708,0.003,0.024,-0.049
1670356794.479991,-9.233,-0.181,4.7250000000000005,-0.6656000000000001,-0.3884,0.3845,0.0,0.017,-0.051000000000000004
1670356794.519991,-9.281,-0.155,4.734,-0.6523,-0.386,0.37610000000000005,0.0,0.016,-0.06
1670356794.559991,-9.253,-0.198,4.716,-0.6545000000000001,-0.388,0.37360000000000004,-0.008,0.011,-0.062
1670356794.599991,-9.236,-0.211,4.735,-0.6549,-0.3874,0.3755,-0.007,0.013000000000000001,-0.05
1670356794.639991,-9.276,-0.20700000000000002,4.752,-0.653,-0.3864,0.37470000000000003,-0.003,0.016,-0.052000000000000005
1670356794.679991,-9.269,-0.21,4.753,-0.6537000000000001,-0.38730000000000003,0.37510000000000004,0.001,0.022,-0.054
1670356794.719991,-9.241,-0.242,4.7330000000000005,-0.6567000000000001,-0.3874,0.3733,0.0,0.013000000000000001,-0.052000000000000005
1670356794.759991,-9.267,-0.232,4.785,-0.6532,-0.38530000000000003,0.3728,0.0,0.013000000000000001,-0.045
1670356794.799991,-9.249,-0.20700000000000002,4.779,-0.6524,-0.3879,0.3759,0.0,0.012,-0.051000000000000004
1670356794.839991,-9.252,-0.20500000000000002,4.737,-0.6533,-0.38630000000000003,0.3718,0.013000000000000001,0.016,-0.058
1670356794.879991,-9.243,-0.209,4.782,-0.6534,-0.387,0.37470000000000003,0.02,0.015,-0.052000000000000005
1670356794.919991,-9.223,-0.229,4.743,-0.656,-0.38720000000000004,0.3735,0.004,0.015,-0.05
1670356794.959991,-9.293000000000001,-0.20700000000000002,4.776,-0.6529,-0.38670000000000004,0.37510000000000004,0.007,0.019,-0.043000000000000003
1670356794.99999,-9.273,-0.16,4.755,-0.6526000000000001,-0.38620000000000004,0.3715,0.009000000000000001,0.024,-0.054
1670356795.03999,-9.203,-0.254,4.731,-0.6535000000000001,-0.38720000000000004,0.3759,0.0,0.021,-0.058
1670356795.07999,-9.219,-0.162,4.718,-0.654,-0.3874,0.374,-0.004,0.014,-0.049
1670356795.1199899,-9.272,-0.186,4.719,-0.652,-0.38520000000000004,0.3733,0.0,0.013000000000000001,-0.052000000000000005
1670356795.15999,-9.255,-0.212,4.788,-0.6537000000000001,-0.3874,0.37310000000000004,0.005,0.014,-0.058
1670356795.19999,-9.245000000000001,-0.254,4.761,-0.6552,-0.38580000000000003,0.3728,0.005,0.019,-0.057
1670356795.23999,-9.265,-0.24,4.758,-0.6524,-0.3875,0.3733,-0.009000000000000001,0.022,-0.044
1670356795.27999,-9.269,-0.186,4.772,-0.6526000000000001,-0.3861,0.3729,0.007,0.023,-0.049
1670356795.31999,-9.282,-0.198,4.73,-0.6526000000000001,-0.38580000000000003,0.37310000000000004,0.013000000000000001,0.03,-0.052000000000000005
1670356795.35999,-9.208,-0.228,4.706,-0.6541,-0.38670000000000004,0.3748,0.01,0.02,-0.044
1670356795.39999,-9.236,-0.20500000000000002,4.7330000000000005,-0.6542,-0.38670000000000004,0.37560000000000004,0.006,0.012,-0.037
1670356795.43999,-9.271,-0.17200000000000001,4.759,-0.6538,-0.38720000000000004,0.37470000000000003,0.016,0.012,-0.048
1670356795.47999,-9.25,-0.21,4.739,-0.6524,-0.38670000000000004,0.3739,0.016,0.006,-0.055
1670356795.51999,-9.248,-0.214,4.751,-0.6554,-0.38620000000000004,0.37510000000000004,0.01,0.009000000000000001,-0.05
1670356795.55999,-9.276,-0.202,4.761,-0.6529,-0.3881,0.37370000000000003,0.003,0.014,-0.047
1670356795.59999,-9.26,-0.20700000000000002,4.788,-0.6529,-0.38730000000000003,0.37470000000000003,0.0,0.019,-0.048
1670356795.63999,-9.263,-0.219,4.782,-0.653,-0.388,0.3753,0.0,0.026000000000000002,-0.048
1670356795.67999,-9.244,-0.20800000000000002,4.75,-0.6535000000000001,-0.38580000000000003,0.3728,-0.001,0.025,-0.046
1670356795.71999,-9.241,-0.2,4.7540000000000004,-0.6553,-0.3861,0.375,0.003,0.018000000000000002,-0.051000000000000004
1670356795.75999,-9.253,-0.19,4.756,-0.6532,-0.3901,0.3744,0.006,0.02,-0.054
1670356795.79999,-9.241,-0.177,4.748,-0.6535000000000001,-0.388,0.3739,0.02,0.016,-0.056
1670356795.83999,-9.197000000000001,-0.209,4.761,-0.6546000000000001,-0.3866,0.3765,0.008,0.018000000000000002,-0.05
1670356795.87999,-9.287,-0.222,4.746,-0.6518,-0.3886,0.3764,0.006,0.021,-0.046
1670356795.91999,-9.299,-0.19,4.7620000000000005,-0.6552,-0.38670000000000004,0.3754,0.018000000000000002,0.024,-0.048
1670356795.95999,-9.182,-0.16,4.777,-0.652,-0.3886,0.37370000000000003,0.011,0.028,-0.055
1670356795.99999,-9.235,-0.226,4.714,-0.6527000000000001,-0.38720000000000004,0.3733,0.004,0.018000000000000002,-0.053
1670356796.039989,-9.253,-0.186,4.743,-0.6529,-0.38870000000000005,0.38620000000000004,-0.003,0.021,-0.054
1670356796.079989,-9.25,-0.199,4.784,-0.654,-0.3889,0.3588,0.004,0.016,-0.057
1670356796.119989,-9.25,-0.229,4.785,-0.654,-0.3889,0.3805,0.009000000000000001,0.013000000000000001,-0.049
1670356796.1599889,-9.23,-0.229,4.785,-0.6524,-0.38830000000000003,0.3805,0.005,0.009000000000000001,-0.06
1670356796.199989,-9.196,-0.187,4.765,-0.6532,-0.387,0.3561,0.006,0.018000000000000002,-0.047
1670356796.239989,-9.257,-0.222,4.7250000000000005,-0.6555000000000001,-0.38930000000000003,0.38870000000000005,0.024,0.016,-0.048
1670356796.279989,-9.254,-0.155,4.755,-0.6548,-0.3861,0.36110000000000003,0.016,0.02,-0.053
1670356796.319989,-9.206,-0.191,4.715,-0.6541,-0.3885,0.37970000000000004,0.007,0.016,-0.044
1670356796.359989,-9.223,-0.182,4.7700000000000005,-0.6535000000000001,-0.3875,0.3723,0.009000000000000001,0.005,-0.053
1670356796.399989,-9.27,-0.167,4.75,-0.6532,-0.3866,0.377,0.014,0.012,-0.06
1670356796.439989,-9.267,-0.209,4.758,-0.6568,-0.38880000000000003,0.37610000000000005,0.004,0.011,-0.055
1670356796.479989,-9.228,-0.187,4.72,-0.6605000000000001,-0.3895,0.37560000000000004,0.0,0.021,-0.048
1670356796.519989,-9.236,-0.189,4.721,-0.6526000000000001,-0.3899,0.3748,0.008,0.021,-0.051000000000000004
1670356796.559989,-9.257,-0.189,4.742,-0.6613,-0.3881,0.3781,0.006,0.021,-0.054
1670356796.599989,-9.221,-0.20800000000000002,4.735,-0.6532,-0.38580000000000003,0.3739,0.005,0.018000000000000002,-0.053
1670356796.639989,-9.258000000000001,-0.216,4.776,-0.6562,-0.38830000000000003,0.382,-0.005,0.02,-0.053
1670356796.679989,-9.258000000000001,-0.17400000000000002,4.755,-0.6554,-0.38670000000000004,0.377,0.0,0.018000000000000002,-0.054
1670356796.719989,-9.26,-0.192,4.764,-0.6566000000000001,-0.3881,0.37420000000000003,0.01,0.016,-0.051000000000000004
1670356796.759989,-9.23,-0.20400000000000001,4.764,-0.6563,-0.3905,0.3748,0.013000000000000001,0.016,-0.053
1670356796.799989,-9.257,-0.223,4.772,-0.6546000000000001,-0.3861,0.3745,0.002,0.02,-0.045
1670356796.839989,-9.218,-0.179,4.734,-0.6528,-0.389,0.374,-0.004,0.023,-0.047
1670356796.879989,-9.242,-0.12,4.7540000000000004,-0.6534,-0.38820000000000005,0.3715,0.008,0.023,-0.052000000000000005
1670356796.919989,-9.235,-0.277,4.728,-0.6543,-0.38670000000000004,0.3729,0.008,0.018000000000000002,-0.059000000000000004
1670356796.959989,-9.238,-0.157,4.737,-0.6555000000000001,-0.3886,0.3758,0.0,0.025,-0.052000000000000005
1670356796.999989,-9.247,-0.194,4.753,-0.6548,-0.3891,0.37470000000000003,-0.009000000000000001,0.02,-0.047
1670356797.039989,-9.25,-0.189,4.746,-0.651,-0.3866,0.37560000000000004,0.006,0.019,-0.052000000000000005
1670356797.079988,-9.264,-0.202,4.772,-0.6533,-0.3886,0.3728,0.009000000000000001,0.016,-0.059000000000000004
1670356797.119988,-9.248,-0.246,4.766,-0.6534,-0.389,0.37260000000000004,0.001,0.018000000000000002,-0.056
1670356797.159988,-9.196,-0.164,4.766,-0.653,-0.38580000000000003,0.37420000000000003,0.007,0.019,-0.041
1670356797.199988,-9.255,-0.23800000000000002,4.707,-0.6534,-0.38670000000000004,0.3744,0.014,0.012,-0.041
1670356797.239988,-9.238,-0.178,4.773,-0.6526000000000001,-0.38830000000000003,0.37320000000000003,0.014,0.012,-0.051000000000000004
1670356797.279988,-9.212,-0.182,4.72,-0.6528,-0.38670000000000004,0.3776,0.006,0.001,-0.043000000000000003
1670356797.319988,-9.254,-0.155,4.712,-0.6547000000000001,-0.3864,0.37510000000000004,0.005,0.008,-0.051000000000000004
1670356797.359988,-9.247,-0.192,4.7700000000000005,-0.6515000000000001,-0.38720000000000004,0.37610000000000005,0.013000000000000001,0.004,-0.06
1670356797.399988,-9.237,-0.222,4.746,-0.6513,-0.3871,0.37610000000000005,0.006,0.008,-0.062
1670356797.439988,-9.244,-0.221,4.749,-0.6559,-0.3881,0.3766,-0.009000000000000001,0.014,-0.05
1670356797.479988,-9.231,-0.184,4.7540000000000004,-0.6538,-0.3866,0.37510000000000004,-0.005,0.018000000000000002,-0.042
1670356797.519988,-9.227,-0.185,4.766,-0.6525000000000001,-0.3881,0.3766,0.006,0.023,-0.052000000000000005
1670356797.559988,-9.224,-0.227,4.7780000000000005,-0.6543,-0.38820000000000005,0.3759,0.013000000000000001,0.013000000000000001,-0.051000000000000004
1670356797.599988,-9.277000000000001,-0.20400000000000001,4.74,-0.6534,-0.38780000000000003,0.3748,0.004,0.014,-0.048
1670356797.639988,-9.299,-0.183,4.797,-0.6506000000000001,-0.38570000000000004,0.3748,0.011,0.019,-0.051000000000000004
1670356797.679988,-9.188,-0.219,4.716,-0.6534,-0.3861,0.37670000000000003,0.014,0.0,-0.066
1670356797.719988,-9.202,-0.217,4.7540000000000004,-0.6521,-0.38780000000000003,0.3766,0.001,-0.003,-0.058
1670356797.759988,-9.239,-0.181,4.799,-0.6569,-0.38880000000000003,0.37560000000000004,0.005,-0.008,-0.059000000000000004
1670356797.799988,-9.211,-0.249,4.846,-0.6525000000000001,-0.3885,0.3763,-0.007,-0.005,-0.05
1670356797.839988,-9.258000000000001,-0.255,4.9110000000000005,-0.6563,-0.3881,0.3753,-0.018000000000000002,0.005,-0.044
1670356797.879988,-9.327,-0.167,4.888,-0.655,-0.38770000000000004,0.37670000000000003,-0.016,0.014,-0.034
1670356797.919988,-9.145,-0.176,4.806,-0.6552,-0.3866,0.3801,-0.009000000000000001,0.026000000000000002,-0.04
1670356797.959988,-9.141,-0.161,4.758,-0.6554,-0.3865,0.3745,0.0,0.007,-0.055
1670356797.999988,-9.206,-0.168,4.779,-0.653,-0.389,0.37920000000000004,0.013000000000000001,0.002,-0.048
1670356798.039988,-9.221,-0.187,4.844,-0.6539,-0.3875,0.3801,0.01,0.0,-0.06
1670356798.079988,-9.241,-0.232,4.892,-0.6555000000000001,-0.3876,0.3759,0.006,0.002,-0.063
1670356798.119987,-9.225,-0.269,4.803,-0.6561,-0.38430000000000003,0.3765,-0.002,-0.002,-0.067
1670356798.159987,-9.237,-0.17500000000000002,4.827,-0.6538,-0.38470000000000004,0.3775,0.0,0.006,-0.043000000000000003
1670356798.199987,-9.195,-0.201,4.854,-0.6534,-0.38480000000000003,0.3778,0.001,0.021,-0.039
1670356798.239987,-9.182,-0.17500000000000002,4.83,-0.6546000000000001,-0.38530000000000003,0.3744,0.013000000000000001,0.024,-0.055
1670356798.279987,-9.200000000000001,-0.211,4.793,-0.6513,-0.38630000000000003,0.377,0.011,0.014,-0.041
1670356798.319987,-9.166,-0.2,4.8340000000000005,-0.6555000000000001,-0.38380000000000003,0.3673,-0.007,0.011,-0.043000000000000003
1670356798.359987,-9.166,-0.2,4.847,-0.6555000000000001,-0.387,0.37210000000000004,-0.012,0.002,-0.057
1670356798.399987,-9.215,-0.2,4.849,-0.6558,-0.387,0.37210000000000004,-0.012,0.0,-0.056
1670356798.439987,-9.206,-0.213,4.849,-0.6576000000000001,-0.38570000000000004,0.3758,-0.003,-0.004,-0.055
1670356798.479987,-9.156,-0.20400000000000001,4.876,-0.6584,-0.3902,0.4002,0.011,0.0,-0.045
1670356798.519987,-9.172,-0.181,4.862,-0.6563,-0.38670000000000004,0.3659,0.022,-0.007,-0.053
1670356798.559987,-9.200000000000001,-0.219,4.915,-0.6584,-0.38680000000000003,0.3934,0.028,-0.005,-0.057
1670356798.599987,-9.151,-0.244,4.913,-0.6563,-0.3861,0.37670000000000003,0.021,-0.01,-0.059000000000000004
1670356798.639987,-9.147,-0.209,4.922,-0.6676000000000001,-0.3902,0.38470000000000004,0.029,-0.004,-0.053
1670356798.679987,-9.194,-0.16,4.94,-0.6569,-0.3861,0.3773,0.034,0.001,-0.053
1670356798.719987,-9.099,-0.196,4.874,-0.6568,-0.3884,0.3795,0.029,0.008,-0.042
1670356798.759987,-9.166,-0.213,4.918,-0.6588,-0.38580000000000003,0.3824,0.019,0.006,-0.042
1670356798.799987,-9.144,-0.151,4.949,-0.6553,-0.388,0.3859,0.022,0.022,-0.04
1670356798.839987,-9.187,-0.10300000000000001,4.944,-0.6558,-0.3885,0.3801,0.028,0.026000000000000002,-0.047
1670356798.879987,-9.187,-0.17200000000000001,4.864,-0.6605000000000001,-0.3911,0.3781,0.021,0.02,-0.051000000000000004
1670356798.919987,-9.127,-0.11,4.906,-0.6556000000000001,-0.39,0.38170000000000004,0.016,0.02,-0.056
1670356798.959987,-9.19,-0.149,4.88,-0.658,-0.3881,0.3776,-0.001,0.019,-0.06
1670356798.999987,-9.168000000000001,-0.168,4.915,-0.6565000000000001,-0.3881,0.37970000000000004,0.001,0.018000000000000002,-0.052000000000000005
1670356799.0399868,-9.144,-0.14,4.966,-0.6575000000000001,-0.38870000000000005,0.37870000000000004,0.0,0.009000000000000001,-0.059000000000000004
1670356799.079987,-9.164,-0.133,4.94,-0.6557000000000001,-0.3902,0.3801,0.008,0.026000000000000002,-0.055
1670356799.119987,-9.193,-0.136,4.898,-0.6573,-0.3894,0.3791,0.005,0.036000000000000004,-0.05
1670356799.159986,-9.202,-0.131,4.848,-0.6544,-0.38820000000000005,0.3798,-0.001,0.037,-0.043000000000000003
1670356799.199986,-9.139,-0.135,4.868,-0.6536000000000001,-0.38470000000000004,0.3798,-0.004,0.03,-0.05
1670356799.239986,-9.146,-0.138,4.859,-0.6533,-0.3899,0.3759,-0.004,0.014,-0.056
1670356799.279986,-9.169,-0.169,4.888,-0.655,-0.3885,0.3768,-0.003,0.001,-0.061
1670356799.319986,-9.179,-0.194,4.88,-0.657,-0.38980000000000004,0.3781,-0.008,0.009000000000000001,-0.056
1670356799.359986,-9.175,-0.17200000000000001,4.907,-0.657,-0.3895,0.3789,-0.006,0.013000000000000001,-0.059000000000000004
1670356799.399986,-9.185,-0.192,4.893,-0.6558,-0.38770000000000004,0.3791,0.005,0.016,-0.052000000000000005
1670356799.439986,-9.131,-0.178,4.929,-0.6556000000000001,-0.38930000000000003,0.3784,0.015,0.013000000000000001,-0.046
1670356799.479986,-9.167,-0.17200000000000001,4.918,-0.6562,-0.38870000000000005,0.381,0.006,0.014,-0.054
1670356799.519986,-9.148,-0.188,4.9430000000000005,-0.6591,-0.3896,0.3768,0.004,0.012,-0.048
1670356799.559986,-9.154,-0.147,4.946,-0.6561,-0.38780000000000003,0.3805,0.009000000000000001,0.004,-0.053
1670356799.599986,-9.14,-0.161,4.944,-0.6577000000000001,-0.3875,0.3784,0.013000000000000001,0.012,-0.052000000000000005
1670356799.639986,-9.182,-0.159,4.886,-0.6562,-0.387,0.3778,0.006,0.019,-0.049
1670356799.679986,-9.147,-0.168,4.88,-0.6548,-0.3891,0.38,0.005,0.016,-0.049
1670356799.719986,-9.129,-0.194,4.928,-0.6567000000000001,-0.38930000000000003,0.3788,-0.006,0.018000000000000002,-0.051000000000000004
1670356799.759986,-9.142,-0.168,4.93,-0.6574,-0.3864,0.3809,-0.004,0.015,-0.054
1670356799.799986,-9.200000000000001,-0.129,4.953,-0.6571,-0.3891,0.3801,-0.002,0.018000000000000002,-0.05
1670356799.8399858,-9.101,-0.213,4.9350000000000005,-0.656,-0.3876,0.3766,-0.006,0.02,-0.055
1670356799.879986,-9.122,-0.164,4.865,-0.6584,-0.3881,0.378,0.002,0.016,-0.054
1670356799.919986,-9.179,-0.14,4.907,-0.6582,-0.3899,0.37920000000000004,0.004,0.017,-0.046
1670356799.959986,-9.163,-0.196,4.931,-0.6571,-0.38630000000000003,0.3808,0.016,0.017,-0.06
1670356799.999986,-9.161,-0.193,4.949,-0.6575000000000001,-0.3844,0.3776,0.005,0.02,-0.061
1670356800.039986,-9.156,-0.226,4.902,-0.6557000000000001,-0.3895,0.37670000000000003,-0.005,0.011,-0.052000000000000005
1670356800.0799859,-9.178,-0.161,4.907,-0.6593,-0.389,0.3803,-0.002,0.011,-0.047
1670356800.119986,-9.191,-0.162,4.906,-0.6595000000000001,-0.38930000000000003,0.3798,0.002,0.031,-0.049
1670356800.159986,-9.126,-0.193,4.8580000000000005,-0.657,-0.38920000000000005,0.3773,0.001,0.028,-0.053
1670356800.199986,-9.132,-0.181,4.865,-0.6584,-0.39030000000000004,0.38120000000000004,-0.011,0.018000000000000002,-0.045
1670356800.239986,-9.183,-0.146,4.889,-0.6552,-0.38880000000000003,0.3748,-0.002,0.014,-0.05
1670356800.279985,-9.169,-0.198,4.87,-0.6558,-0.38680000000000003,0.3798,0.012,0.005,-0.058
1670356800.319985,-9.179,-0.21,4.965,-0.6549,-0.3866,0.38,0.0,0.005,-0.05
1670356800.359985,-9.148,-0.184,4.888,-0.6583,-0.38670000000000004,0.3785,0.003,0.011,-0.05
1670356800.399985,-9.157,-0.202,4.915,-0.6578,-0.38770000000000004,0.38020000000000004,0.001,0.015,-0.055
1670356800.439985,-9.138,-0.213,4.891,-0.6565000000000001,-0.3889,0.3788,0.001,0.022,-0.055
1670356800.479985,-9.158,-0.203,4.907,-0.6577000000000001,-0.38780000000000003,0.3778,-0.001,0.019,-0.049
1670356800.519985,-9.153,-0.19,4.971,-0.6562,-0.38630000000000003,0.37770000000000004,-0.001,0.02,-0.05
1670356800.559985,-9.147,-0.2,4.8870000000000005,-0.6568,-0.3869,0.36970000000000003,-0.001,0.019,-0.051000000000000004
1670356800.599985,-9.154,-0.194,4.915,-0.6687000000000001,-0.38830000000000003,0.3665,-0.001,0.024,-0.055
1670356800.6399848,-9.154,-0.2,4.847,-0.6687000000000001,-0.38720000000000004,0.3816,0.002,0.023,-0.053
1670356800.679985,-9.166,-0.2,4.889,-0.6566000000000001,-0.38720000000000004,0.3783,0.009000000000000001,0.021,-0.049
1670356800.719985,-9.145,-0.187,4.889,-0.6607000000000001,-0.3865,0.3783,0.018000000000000002,0.014,-0.046
1670356800.759985,-9.188,-0.17500000000000002,4.882,-0.6595000000000001,-0.39030000000000004,0.3675,0.016,0.013000000000000001,-0.059000000000000004
1670356800.799985,-9.099,-0.227,4.902,-0.6659,-0.39130000000000004,0.3905,0.012,0.003,-0.054
1670356800.839985,-9.217,-0.19,4.914,-0.6542,-0.3885,0.37370000000000003,0.006,0.016,-0.045
1670356800.8799849,-9.178,-0.20600000000000002,4.95,-0.6567000000000001,-0.3861,0.3786,0.003,0.034,-0.053
1670356800.919985,-9.129,-0.153,4.897,-0.6556000000000001,-0.3885,0.37970000000000004,-0.006,0.036000000000000004,-0.051000000000000004
1670356800.959985,-9.136000000000001,-0.214,4.873,-0.6552,-0.39,0.3811,-0.001,0.037,-0.044
1670356800.999985,-9.168000000000001,-0.17200000000000001,4.91,-0.6565000000000001,-0.38680000000000003,0.3785,0.001,0.031,-0.055
1670356801.039985,-9.202,-0.177,4.92,-0.6575000000000001,-0.387,0.3795,0.005,0.037,-0.054
1670356801.079985,-9.177,-0.16,4.8790000000000004,-0.6554,-0.3875,0.3765,0.017,0.03,-0.065
1670356801.1199849,-9.179,-0.23800000000000002,4.841,-0.657,-0.38780000000000003,0.37620000000000003,0.005,0.025,-0.045
1670356801.159985,-9.244,-0.165,4.828,-0.6541,-0.38720000000000004,0.3769,0.005,0.025,-0.048
1670356801.199985,-9.172,-0.14200000000000002,4.846,-0.6553,-0.3851,0.37670000000000003,0.01,0.018000000000000002,-0.056
1670356801.239985,-9.136000000000001,-0.20500000000000002,4.8500000000000005,-0.6561,-0.3881,0.3785,0.005,0.004,-0.051000000000000004
1670356801.279985,-9.182,-0.25,4.8500000000000005,-0.6556000000000001,-0.3859,0.3754,0.0,0.005,-0.043000000000000003
1670356801.319984,-9.195,-0.134,4.916,-0.6555000000000001,-0.388,0.3771,0.008,0.009000000000000001,-0.06
1670356801.359984,-9.185,-0.196,4.9270000000000005,-0.6544,-0.388,0.3779,0.004,0.014,-0.056
1670356801.399984,-9.154,-0.219,4.929,-0.6561,-0.38620000000000004,0.3776,0.003,0.018000000000000002,-0.048
1670356801.4399838,-9.165000000000001,-0.191,4.866,-0.6628000000000001,-0.3871,0.3781,0.004,0.024,-0.047
1670356801.479984,-9.171,-0.17400000000000002,4.877,-0.6583,-0.3881,0.3805,0.008,0.03,-0.045
1670356801.519984,-9.157,-0.171,4.897,-0.6554,-0.3879,0.3776,0.009000000000000001,0.023,-0.049
1670356801.559984,-9.163,-0.182,4.89,-0.6564,-0.3895,0.37720000000000004,0.007,0.022,-0.05
1670356801.599984,-9.191,-0.183,4.897,-0.6548,-0.3884,0.37820000000000004,0.003,0.018000000000000002,-0.052000000000000005
1670356801.639984,-9.206,-0.171,4.843,-0.6568,-0.38770000000000004,0.3786,0.004,0.011,-0.048
1670356801.6799839,-9.169,-0.17500000000000002,4.886,-0.6551,-0.38780000000000003,0.3773,0.005,0.018000000000000002,-0.045
1670356801.719984,-9.199,-0.17200000000000001,4.891,-0.6557000000000001,-0.38770000000000004,0.3798,0.004,0.023,-0.051000000000000004
1670356801.759984,-9.196,-0.202,4.891,-0.6607000000000001,-0.387,0.3816,0.0,0.024,-0.05
1670356801.799984,-9.151,-0.229,4.885,-0.66,-0.3894,0.3808,-0.002,0.021,-0.064
1670356801.839984,-9.194,-0.195,4.9190000000000005,-0.6574,-0.38720000000000004,0.3771,-0.009000000000000001,0.025,-0.053
1670356801.879984,-9.248,-0.149,4.891,-0.6552,-0.3894,0.3778,0.003,0.025,-0.056
1670356801.9199839,-9.165000000000001,-0.21,4.8790000000000004,-0.6573,-0.3891,0.3804,0.001,0.031,-0.051000000000000004
1670356801.959984,-9.129,-0.212,4.831,-0.6565000000000001,-0.38830000000000003,0.3784,0.004,0.034,-0.051000000000000004
1670356801.999984,-9.208,-0.17,4.839,-0.6555000000000001,-0.3885,0.376,0.003,0.029,-0.043000000000000003
1670356802.039984,-9.191,-0.187,4.839,-0.6558,-0.3895,0.3776,0.003,0.032,-0.051000000000000004
1670356802.079984,-9.200000000000001,-0.192,4.846,-0.6557000000000001,-0.38620000000000004,0.3775,0.005,0.023,-0.051000000000000004
1670356802.119984,-9.168000000000001,-0.23900000000000002,4.844,-0.6533,-0.3881,0.3766,-0.005,0.018000000000000002,-0.058
1670356802.1599839,-9.16,-0.146,4.853,-0.6546000000000001,-0.38830000000000003,0.3743,-0.003,0.014,-0.04
1670356802.199984,-9.200000000000001,-0.232,4.836,-0.6564,-0.38820000000000005,0.3775,0.005,0.022,-0.052000000000000005
1670356802.239984,-9.166,-0.17400000000000002,4.7940000000000005,-0.6554,-0.38720000000000004,0.3793,0.011,0.03,-0.062
1670356802.279984,-9.200000000000001,-0.188,4.866,-0.6537000000000001,-0.3894,0.3759,0.003,0.029,-0.051000000000000004
1670356802.319984,-9.176,-0.168,4.795,-0.6549,-0.38830000000000003,0.375,0.003,0.027,-0.047
1670356802.359983,-9.219,-0.168,4.812,-0.6543,-0.38780000000000003,0.3794,0.002,0.026000000000000002,-0.054
1670356802.399983,-9.19,-0.212,4.814,-0.6536000000000001,-0.3874,0.3749,-0.003,0.024,-0.055
1670356802.439983,-9.217,-0.196,4.8100000000000005,-0.6561,-0.3869,0.37420000000000003,-0.015,0.02,-0.038
1670356802.4799829,-9.188,-0.165,4.803,-0.6556000000000001,-0.3869,0.37670000000000003,-0.013000000000000001,0.008,-0.049
1670356802.519983,-9.208,-0.20500000000000002,4.803,-0.6545000000000001,-0.38630000000000003,0.37470000000000003,-0.005,0.004,-0.063
1670356802.559983,-9.205,-0.229,4.816,-0.6534,-0.3881,0.37620000000000003,-0.001,0.008,-0.058
1670356802.599983,-9.203,-0.243,4.9,-0.6566000000000001,-0.387,0.3783,0.001,0.014,-0.058
1670356802.639983,-9.188,-0.22,4.889,-0.6571,-0.3844,0.3801,0.002,0.015,-0.051000000000000004
1670356802.679983,-9.188,-0.23500000000000001,4.848,-0.6572,-0.3881,0.378,0.01,0.015,-0.052000000000000005
1670356802.7199829,-9.178,-0.222,4.847,-0.6631,-0.38620000000000004,0.3795,0.014,0.027,-0.054
1670356802.759983,-9.120000000000001,-0.264,4.845,-0.6626000000000001,-0.3861,0.3814,0.0,0.024,-0.047
1670356802.799983,-9.217,-0.209,4.873,-0.6554,-0.3874,0.3745,-0.001,0.02,-0.04
1670356802.839983,-9.290000000000001,-0.169,4.88,-0.6592,-0.3875,0.3859,0.023,0.013000000000000001,-0.032
1670356802.879983,-9.19,-0.199,4.822,-0.6584,-0.38880000000000003,0.38830000000000003,0.029,0.028,-0.058
1670356802.919983,-9.19,-0.251,4.765,-0.6584,-0.3885,0.3909,0.012,0.027,-0.051000000000000004
1670356802.9599829,-9.187,-0.251,4.765,-0.6537000000000001,-0.3885,0.3909,-0.004,0.025,-0.036000000000000004
1670356802.999983,-9.203,-0.15,4.8020000000000005,-0.6572,-0.387,0.365,-0.002,0.028,-0.05
1670356803.039983,-9.205,-0.153,4.812,-0.6568,-0.3866,0.3855,-0.003,0.022,-0.06
1670356803.079983,-9.238,-0.222,4.801,-0.6574,-0.38580000000000003,0.34600000000000003,-0.012,0.021,-0.06
1670356803.119983,-9.219,-0.255,4.812,-0.6573,-0.3855,0.372,-0.014,0.012,-0.045
1670356803.159983,-9.246,-0.137,4.797,-0.6538,-0.38470000000000004,0.3758,-0.009000000000000001,0.031,-0.054
1670356803.199983,-9.234,-0.17500000000000002,4.803,-0.6549,-0.3885,0.3739,0.0,0.03,-0.053
1670356803.239983,-9.178,-0.222,4.748,-0.6543,-0.383,0.37560000000000004,0.005,0.022,-0.049
1670356803.279983,-9.209,-0.21,4.8180000000000005,-0.6524,-0.3855,0.3765,0.008,0.014,-0.055
1670356803.319983,-9.22,-0.20500000000000002,4.819,-0.6561,-0.38730000000000003,0.37620000000000003,0.003,0.012,-0.06
1670356803.359983,-9.224,-0.228,4.838,-0.6543,-0.385,0.3755,0.001,0.016,-0.063
1670356803.399982,-9.215,-0.255,4.806,-0.6523,-0.3845,0.3764,-0.004,0.014,-0.065
1670356803.439982,-9.214,-0.248,4.7860000000000005,-0.6602,-0.3851,0.3748,-0.007,0.023,-0.061
1670356803.479982,-9.197000000000001,-0.256,4.831,-0.6538,-0.38570000000000004,0.37520000000000003,-0.003,0.023,-0.05
1670356803.5199819,-9.197000000000001,-0.226,4.827,-0.6555000000000001,-0.3881,0.3805,0.004,0.019,-0.043000000000000003
1670356803.559982,-9.206,-0.219,4.796,-0.6572,-0.387,0.3758,0.015,0.021,-0.052000000000000005
1670356803.599982,-9.211,-0.22,4.812,-0.6665,-0.38870000000000005,0.38280000000000003,0.016,0.014,-0.052000000000000005
1670356803.639982,-9.191,-0.211,4.807,-0.652,-0.38720000000000004,0.37520000000000003,-0.001,0.009000000000000001,-0.057
1670356803.679982,-9.15,-0.20700000000000002,4.806,-0.6549,-0.38570000000000004,0.3785,0.007,0.005,-0.049
1670356803.719982,-9.25,-0.20500000000000002,4.849,-0.6533,-0.38530000000000003,0.37470000000000003,0.022,0.015,-0.041
1670356803.7599819,-9.254,-0.217,4.87,-0.6545000000000001,-0.3886,0.3808,0.016,0.03,-0.056
1670356803.799982,-9.159,-0.202,4.838,-0.6622,-0.38770000000000004,0.37720000000000004,0.0,0.026000000000000002,-0.046
1670356803.839982,-9.167,-0.218,4.761,-0.6552,-0.38630000000000003,0.3754,0.0,0.023,-0.046
1670356803.879982,-9.233,-0.191,4.79,-0.6521,-0.3855,0.3775,0.0,0.016,-0.056
1670356803.919982,-9.223,-0.244,4.852,-0.6557000000000001,-0.3859,0.3778,0.0,0.015,-0.058
1670356803.959982,-9.227,-0.241,4.831,-0.6544,-0.38520000000000004,0.37470000000000003,-0.011,0.009000000000000001,-0.06
1670356803.9999819,-9.214,-0.251,4.809,-0.6523,-0.3855,0.3758,-0.012,0.017,-0.056
1670356804.039982,-9.261000000000001,-0.195,4.837,-0.6543,-0.38420000000000004,0.3773,0.007,0.025,-0.052000000000000005
1670356804.079982,-9.233,-0.20500000000000002,4.812,-0.6545000000000001,-0.38320000000000004,0.37420000000000003,0.01,0.024,-0.052000000000000005
1670356804.119982,-9.153,-0.228,4.845,-0.653,-0.3839,0.374,0.01,0.016,-0.043000000000000003
1670356804.159982,-9.216000000000001,-0.20700000000000002,4.797,-0.6551,-0.3851,0.3759,0.002,0.01,-0.047
1670356804.199982,-9.199,-0.188,4.846,-0.6573,-0.3846,0.3739,0.01,0.002,-0.057
1670356804.239982,-9.221,-0.267,4.867,-0.6565000000000001,-0.387,0.3764,0.006,0.002,-0.054
1670356804.279982,-9.198,-0.224,4.812,-0.6575000000000001,-0.3845,0.3776,0.0,0.008,-0.052000000000000005
1670356804.319982,-9.188,-0.248,4.838,-0.655,-0.3881,0.3749,-0.002,0.008,-0.052000000000000005
1670356804.359982,-9.182,-0.213,4.872,-0.6545000000000001,-0.38630000000000003,0.3775,0.003,0.015,-0.05
1670356804.399982,-9.183,-0.242,4.8340000000000005,-0.6542,-0.38470000000000004,0.38020000000000004,0.005,0.015,-0.047
1670356804.439981,-9.179,-0.23800000000000002,4.853,-0.655,-0.3851,0.37410000000000004,0.0,0.009000000000000001,-0.048
1670356804.479981,-9.183,-0.233,4.862,-0.656,-0.3875,0.376,0.004,0.008,-0.056
1670356804.519981,-9.154,-0.23700000000000002,4.88,-0.6542,-0.38580000000000003,0.3776,0.0,0.004,-0.047
1670356804.5599809,-9.234,-0.248,4.87,-0.6568,-0.3841,0.3764,0.007,0.009000000000000001,-0.05
1670356804.599981,-9.281,-0.20800000000000002,4.89,-0.6566000000000001,-0.38570000000000004,0.37720000000000004,0.015,0.019,-0.047
1670356804.639981,-9.142,-0.211,4.869,-0.6566000000000001,-0.384,0.37920000000000004,0.018000000000000002,0.02,-0.046
1670356804.679981,-9.164,-0.245,4.809,-0.6563,-0.3869,0.3766,0.013000000000000001,0.022,-0.049
1670356804.719981,-9.194,-0.219,4.868,-0.6543,-0.38420000000000004,0.3729,0.004,0.018000000000000002,-0.05
1670356804.759981,-9.178,-0.243,4.88,-0.6559,-0.3845,0.3771,0.003,0.02,-0.057
1670356804.7999809,-9.208,-0.242,4.901,-0.659,-0.38670000000000004,0.37570000000000003,0.0,0.01,-0.054
1670356804.839981,-9.22,-0.276,4.83,-0.6566000000000001,-0.3846,0.3771,-0.029,0.035,-0.04
1670356804.879981,-9.26,-0.145,4.8340000000000005,-0.6552,-0.3855,0.37870000000000004,-0.007,0.024,-0.021
1670356804.919981,-9.205,-0.167,4.855,-0.6609,-0.3874,0.37970000000000004,0.029,0.018000000000000002,-0.043000000000000003
1670356804.959981,-9.142,-0.218,4.827,-0.6552,-0.38680000000000003,0.3771,0.049,0.016,-0.056
1670356804.999981,-9.199,-0.228,4.8100000000000005,-0.6541,-0.38620000000000004,0.37560000000000004,0.026000000000000002,-0.005,-0.048
1670356805.039981,-9.175,-0.195,4.861,-0.6546000000000001,-0.38370000000000004,0.3759,0.027,-0.003,-0.051000000000000004
1670356805.079981,-9.185,-0.17500000000000002,4.901,-0.6555000000000001,-0.3864,0.3764,0.033,-0.003,-0.07200000000000001
1670356805.119981,-9.159,-0.231,4.901,-0.6539,-0.3854,0.3688,0.011,-0.001,-0.064
1670356805.159981,-9.162,-0.222,4.902,-0.6565000000000001,-0.3856,0.36510000000000004,0.002,0.006,-0.047
1670356805.199981,-9.162,-0.183,4.9110000000000005,-0.6565000000000001,-0.3856,0.3563,0.003,0.014,-0.052000000000000005
1670356805.239981,-9.207,-0.183,4.9110000000000005,-0.6569,-0.3864,0.3563,-0.001,0.019,-0.058
1670356805.279981,-9.141,-0.22,4.933,-0.6578,-0.3841,0.3695,-0.001,0.021,-0.052000000000000005
1670356805.319981,-9.178,-0.198,4.91,-0.6581,-0.38770000000000004,0.3932,0.001,0.02,-0.052000000000000005
1670356805.359981,-9.153,-0.198,4.882,-0.6575000000000001,-0.38770000000000004,0.36910000000000004,0.007,0.021,-0.06
1670356805.399981,-9.156,-0.20400000000000001,4.89,-0.6572,-0.38580000000000003,0.38480000000000003,-0.007,0.025,-0.058
1670356805.439981,-9.112,-0.228,4.854,-0.6594,-0.3839,0.3839,-0.002,0.023,-0.052000000000000005
1670356805.399981,-9.221,-0.229,4.874,-0.6574,-0.3856,0.37510000000000004,0.011,0.033,-0.044
1670356805.439981,-9.232,-0.266,4.867,-0.6623,-0.39130000000000004,0.387,-0.004,0.04,-0.049
1670356805.47998,-9.132,-0.168,4.876,-0.6576000000000001,-0.3856,0.37720000000000004,-0.008,0.037,-0.055
1670356805.51998,-9.171,-0.246,4.824,-0.6676000000000001,-0.38780000000000003,0.3778,-0.002,0.019,-0.054
1670356805.55998,-9.187,-0.217,4.854,-0.6552,-0.387,0.3758,0.005,0.006,-0.057
1670356805.5999799,-9.194,-0.233,4.847,-0.6583,-0.3859,0.3815,0.003,0.008,-0.053
1670356805.63998,-9.191,-0.253,4.859,-0.6552,-0.387,0.3749,-0.001,0.006,-0.056
1670356805.67998,-9.126,-0.219,4.889,-0.6701,-0.39030000000000004,0.38570000000000004,0.004,0.009000000000000001,-0.046
1670356805.71998,-9.219,-0.23900000000000002,4.88,-0.6564,-0.3839,0.3798,0.014,0.017,-0.048
1670356805.75998,-9.185,-0.176,4.901,-0.6568,-0.38670000000000004,0.3808,0.017,0.017,-0.052000000000000005
1670356805.79998,-9.117,-0.20400000000000001,4.871,-0.6554,-0.3834,0.3786,0.01,0.016,-0.047
1670356805.83998,-9.176,-0.21,4.8580000000000005,-0.6555000000000001,-0.38680000000000003,0.37720000000000004,0.014,0.012,-0.047
1670356805.87998,-9.205,-0.19,4.926,-0.6563,-0.3866,0.3804,0.018000000000000002,0.008,-0.055
1670356805.91998,-9.191,-0.276,4.871,-0.656,-0.3875,0.37720000000000004,0.001,0.017,-0.054
1670356805.95998,-9.197000000000001,-0.216,4.864,-0.6601,-0.3869,0.3809,-0.005,0.021,-0.05
1670356805.99998,-9.185,-0.20800000000000002,4.868,-0.6577000000000001,-0.3885,0.37820000000000004,-0.002,0.027,-0.054
1670356806.03998,-9.193,-0.232,4.825,-0.6562,-0.3869,0.37310000000000004,-0.001,0.024,-0.057
1670356806.07998,-9.173,-0.24,4.871,-0.657,-0.387,0.378,-0.004,0.023,-0.049
1670356806.11998,-9.163,-0.22,4.871,-0.6572,-0.3859,0.37670000000000003,-0.003,0.019,-0.056
1670356806.15998,-9.200000000000001,-0.224,4.8790000000000004,-0.6574,-0.3864,0.3794,0.001,0.016,-0.054
1670356806.19998,-9.16,-0.23900000000000002,4.844,-0.655,-0.3851,0.3771,0.007,0.013000000000000001,-0.056
1670356806.23998,-9.178,-0.244,4.859,-0.6533,-0.38480000000000003,0.3765,0.006,0.014,-0.059000000000000004
1670356806.27998,-9.133000000000001,-0.226,4.897,-0.6568,-0.3855,0.37470000000000003,0.004,0.007,-0.049
1670356806.31998,-9.142,-0.177,4.913,-0.659,-0.38520000000000004,0.3785,0.016,0.006,-0.038
1670356806.35998,-9.208,-0.301,4.892,-0.6574,-0.3861,0.3763,0.015,0.025,-0.056
1670356806.39998,-9.167,-0.17400000000000002,4.8580000000000005,-0.6583,-0.386,0.3765,0.006,0.027,-0.054
1670356806.43998,-9.172,-0.257,4.859,-0.6566000000000001,-0.38580000000000003,0.37720000000000004,-0.006,0.022,-0.043000000000000003
1670356806.47998,-9.151,-0.20700000000000002,4.877,-0.6557000000000001,-0.3856,0.3778,-0.002,0.02,-0.057
1670356806.519979,-9.188,-0.186,4.932,-0.6588,-0.38670000000000004,0.3753,0.008,0.009000000000000001,-0.053
1670356806.559979,-9.133000000000001,-0.20400000000000001,4.856,-0.6568,-0.3881,0.3755,0.018000000000000002,0.007,-0.056
1670356806.599979,-9.133000000000001,-0.23,4.885,-0.658,-0.387,0.37970000000000004,0.011,0.015,-0.046
1670356806.639979,-9.212,-0.262,4.855,-0.6602,-0.387,0.3764,0.011,0.022,-0.045
1670356806.679979,-9.179,-0.186,4.888,-0.6649,-0.3869,0.37610000000000005,0.01,0.032,-0.057
1670356806.719979,-9.154,-0.201,4.8580000000000005,-0.6588,-0.38670000000000004,0.37920000000000004,0.006,0.03,-0.051000000000000004
1670356806.759979,-9.189,-0.231,4.847,-0.6592,-0.38580000000000003,0.37560000000000004,0.0,0.022,-0.047
1670356806.799979,-9.187,-0.199,4.907,-0.6559,-0.3885,0.37510000000000004,-0.002,0.009000000000000001,-0.057
1670356806.839979,-9.182,-0.216,4.908,-0.6566000000000001,-0.389,0.37920000000000004,0.001,0.014,-0.067
1670356806.879979,-9.206,-0.214,4.865,-0.658,-0.38470000000000004,0.3769,0.007,0.006,-0.051000000000000004
1670356806.919979,-9.203,-0.234,4.877,-0.6587000000000001,-0.386,0.3774,0.004,0.014,-0.048
1670356806.959979,-9.147,-0.221,4.8790000000000004,-0.6564,-0.38470000000000004,0.3775,0.002,0.018000000000000002,-0.049
1670356806.999979,-9.169,-0.21,4.873,-0.6554,-0.3839,0.37720000000000004,0.001,0.02,-0.052000000000000005
1670356807.039979,-9.187,-0.23800000000000002,4.882,-0.656,-0.38620000000000004,0.37510000000000004,0.007,0.013000000000000001,-0.06
1670356807.079979,-9.144,-0.231,4.869,-0.659,-0.3881,0.3784,0.003,0.013000000000000001,-0.051000000000000004
1670356807.119979,-9.172,-0.202,4.901,-0.6562,-0.385,0.3774,0.01,0.005,-0.052000000000000005
1670356807.159979,-9.172,-0.21,4.881,-0.6584,-0.38330000000000003,0.3773,0.015,0.009000000000000001,-0.054
1670356807.199979,-9.196,-0.23600000000000002,4.871,-0.6625,-0.3839,0.3764,0.02,0.015,-0.055
1670356807.239979,-9.159,-0.258,4.868,-0.6577000000000001,-0.3861,0.3808,0.011,0.023,-0.05
1670356807.279979,-9.225,-0.246,4.922,-0.6558,-0.385,0.375,0.0,0.014,-0.051000000000000004
1670356807.319979,-9.276,-0.10400000000000001,4.924,-0.6577000000000001,-0.38630000000000003,0.3875,0.001,0.009000000000000001,-0.035
1670356807.359979,-9.131,-0.251,4.837,-0.6577000000000001,-0.38770000000000004,0.3629,0.007,0.015,-0.054
1670356807.399979,-9.131,-0.251,4.808,-0.6583,-0.38770000000000004,0.3682,0.0,0.019,-0.055
1670356807.439979,-9.151,-0.23800000000000002,4.808,-0.6613,-0.38720000000000004,0.3682,-0.005,0.02,-0.047
1670356807.479979,-9.17,-0.194,4.9,-0.6584,-0.3849,0.374,-0.001,0.016,-0.053
1670356807.519979,-9.19,-0.195,4.958,-0.6613,-0.3912,0.3682,0.005,0.012,-0.057
1670356807.559978,-9.187,-0.23700000000000002,4.906,-0.6592,-0.3866,0.3905,0.003,0.017,-0.053
1670356807.599978,-9.181000000000001,-0.277,4.906,-0.6721,-0.38820000000000005,0.3849,-0.008,0.018000000000000002,-0.046
1670356807.639978,-9.201,-0.14200000000000002,4.901,-0.6581,-0.3855,0.378,0.002,0.022,-0.048
1670356807.679978,-9.19,-0.234,4.886,-0.6595000000000001,-0.3865,0.3799,0.013000000000000001,0.023,-0.053
1670356807.719978,-9.131,-0.216,4.886,-0.657,-0.3885,0.38070000000000004,0.006,0.021,-0.041
1670356807.759978,-9.163,-0.225,4.906,-0.6582,-0.3885,0.3801,0.006,0.016,-0.044
1670356807.799978,-9.181000000000001,-0.201,4.908,-0.6571,-0.38470000000000004,0.37970000000000004,0.009000000000000001,0.009000000000000001,-0.051000000000000004
1670356807.839978,-9.186,-0.20400000000000001,4.9,-0.6596000000000001,-0.3864,0.3784,0.008,0.009000000000000001,-0.057
1670356807.879978,-9.158,-0.24,4.853,-0.6567000000000001,-0.3864,0.3778,-0.006,0.023,-0.053
1670356807.919978,-9.178,-0.223,4.8870000000000005,-0.6577000000000001,-0.3864,0.37560000000000004,-0.009000000000000001,0.024,-0.045
1670356807.959978,-9.168000000000001,-0.211,4.865,-0.6555000000000001,-0.3861,0.3744,0.002,0.02,-0.051000000000000004
1670356807.999978,-9.152000000000001,-0.219,4.904,-0.6554,-0.38570000000000004,0.3788,0.001,0.021,-0.06
1670356808.039978,-9.179,-0.23800000000000002,4.894,-0.6577000000000001,-0.38630000000000003,0.37770000000000004,-0.003,0.011,-0.051000000000000004
1670356808.079978,-9.153,-0.23500000000000001,4.886,-0.6565000000000001,-0.3841,0.37570000000000003,0.005,0.012,-0.054
1670356808.119978,-9.15,-0.222,4.889,-0.6561,-0.3861,0.3763,0.015,0.013000000000000001,-0.054
1670356808.159978,-9.207,-0.211,4.901,-0.6595000000000001,-0.3846,0.3776,0.01,0.013000000000000001,-0.054
1670356808.199978,-9.154,-0.243,4.906,-0.6596000000000001,-0.385,0.37570000000000003,0.014,0.015,-0.056
1670356808.239978,-9.141,-0.28800000000000003,4.884,-0.6574,-0.386,0.37560000000000004,0.0,0.016,-0.049
1670356808.279978,-9.176,-0.252,4.953,-0.6565000000000001,-0.38730000000000003,0.3776,-0.002,0.014,-0.049
1670356808.319978,-9.205,-0.198,4.875,-0.6576000000000001,-0.3836,0.3745,0.001,0.022,-0.056
1670356808.359978,-9.114,-0.257,4.851,-0.6581,-0.3861,0.3763,0.0,0.018000000000000002,-0.053
1670356808.399978,-9.091,-0.23500000000000001,4.845,-0.6591,-0.38530000000000003,0.37920000000000004,0.001,0.012,-0.053
1670356808.439978,-9.205,-0.228,4.87,-0.658,-0.3839,0.376,0.006,0.012,-0.055
1670356808.4799778,-9.164,-0.248,4.8790000000000004,-0.6563,-0.38470000000000004,0.3764,0.007,0.011,-0.058
1670356808.519978,-9.195,-0.259,4.913,-0.6562,-0.38170000000000004,0.3775,0.004,0.016,-0.051000000000000004
1670356808.559978,-9.161,-0.275,4.877,-0.6593,-0.38630000000000003,0.37460000000000004,-0.002,0.019,-0.049
1670356808.599977,-9.168000000000001,-0.182,4.9510000000000005,-0.6613,-0.3845,0.376,0.009000000000000001,0.021,-0.051000000000000004
1670356808.639977,-9.194,-0.253,4.886,-0.6581,-0.3841,0.377,0.013000000000000001,0.027,-0.051000000000000004
1670356808.679977,-9.129,-0.228,4.917,-0.6582,-0.38880000000000003,0.3744,0.017,0.024,-0.044
1670356808.719977,-9.151,-0.23700000000000002,4.894,-0.6602,-0.38420000000000004,0.3769,0.012,0.008,-0.049
1670356808.759977,-9.194,-0.211,4.915,-0.6587000000000001,-0.3854,0.3801,0.012,0.011,-0.054
1670356808.799977,-9.169,-0.224,4.912,-0.6573,-0.38520000000000004,0.3759,0.009000000000000001,0.009000000000000001,-0.057
1670356808.839977,-9.157,-0.258,4.886,-0.6596000000000001,-0.385,0.3759,-0.007,0.014,-0.049
1670356808.879977,-9.175,-0.222,4.8950000000000005,-0.6588,-0.38820000000000005,0.3775,-0.003,0.016,-0.05
1670356808.919977,-9.16,-0.23500000000000001,4.9030000000000005,-0.6588,-0.3869,0.3769,0.0,0.023,-0.051000000000000004
1670356808.959977,-9.147,-0.253,4.913,-0.6609,-0.3846,0.3764,0.003,0.02,-0.058
1670356808.999977,-9.155,-0.274,4.928,-0.6588,-0.3849,0.3784,0.01,0.02,-0.053
1670356809.039977,-9.133000000000001,-0.245,4.89,-0.6581,-0.3841,0.3776,0.002,0.016,-0.046
1670356809.079977,-9.16,-0.221,4.889,-0.6571,-0.38480000000000003,0.3776,0.012,0.01,-0.046
1670356809.119977,-9.164,-0.231,4.918,-0.6562,-0.38630000000000003,0.3773,0.02,0.016,-0.053
1670356809.159977,-9.17,-0.23900000000000002,4.8950000000000005,-0.6574,-0.3866,0.3794,0.02,0.025,-0.052000000000000005
1670356809.199977,-9.123,-0.232,4.896,-0.6593,-0.3884,0.37210000000000004,0.006,0.022,-0.047
1670356809.239977,-9.188,-0.184,4.894,-0.6582,-0.3865,0.37720000000000004,0.003,0.027,-0.04
1670356809.2799768,-9.182,-0.26,4.882,-0.6581,-0.38720000000000004,0.375,0.016,0.03,-0.058
1670356809.319977,-9.147,-0.184,4.891,-0.6609,-0.3869,0.37610000000000005,0.004,0.027,-0.055
1670356809.359977,-9.149000000000001,-0.25,4.8580000000000005,-0.6594,-0.38870000000000005,0.3775,-0.003,0.016,-0.048
1670356809.399977,-9.165000000000001,-0.211,4.904,-0.6615,-0.3861,0.379,-0.007,0.016,-0.052000000000000005
1670356809.439977,-9.191,-0.244,4.916,-0.6601,-0.38770000000000004,0.3764,0.0,0.02,-0.059000000000000004
1670356809.479977,-9.124,-0.28400000000000003,4.918,-0.6591,-0.38630000000000003,0.3758,0.0,0.016,-0.054
1670356809.5199769,-9.116,-0.231,4.889,-0.656,-0.3855,0.3784,-0.005,0.012,-0.051000000000000004
1670356809.559977,-9.177,-0.27,4.924,-0.6614,-0.38930000000000003,0.3865,0.005,0.019,-0.051000000000000004
1670356809.599977,-9.179,-0.201,4.917,-0.6585000000000001,-0.388,0.36510000000000004,0.022,0.021,-0.051000000000000004
1670356809.639977,-9.179,-0.262,4.897,-0.6585000000000001,-0.38680000000000003,0.39530000000000004,0.008,0.023,-0.046
1670356809.679977,-9.13,-0.262,4.897,-0.6731,-0.38680000000000003,0.39530000000000004,-0.005,0.013000000000000001,-0.04
1670356809.719976,-9.169,-0.223,4.877,-0.6641,-0.3865,0.3919,0.005,0.012,-0.056
1670356809.759976,-9.187,-0.19,4.898,-0.6646000000000001,-0.3861,0.39590000000000003,0.02,0.009000000000000001,-0.056
1670356809.799976,-9.173,-0.25,4.908,-0.6635,-0.38530000000000003,0.35900000000000004,0.012,0.009000000000000001,-0.048
1670356809.839976,-9.162,-0.23600000000000002,4.9190000000000005,-0.6599,-0.3856,0.3816,0.005,0.014,-0.044
1670356809.879976,-9.142,-0.223,4.905,-0.6593,-0.388,0.3759,0.014,0.022,-0.05
1670356809.919976,-9.172,-0.24,4.936,-0.6587000000000001,-0.38580000000000003,0.379,0.009000000000000001,0.021,-0.048
1670356809.959976,-9.141,-0.222,4.897,-0.6572,-0.3869,0.3753,0.0,0.025,-0.052000000000000005
1670356809.999976,-9.166,-0.223,4.918,-0.6596000000000001,-0.38920000000000005,0.3739,-0.003,0.026000000000000002,-0.051000000000000004
1670356810.039976,-9.16,-0.223,4.885,-0.6614,-0.388,0.3773,0.003,0.026000000000000002,-0.055
1670356810.0799758,-9.172,-0.20800000000000002,4.92,-0.6602,-0.38770000000000004,0.3763,0.01,0.025,-0.056
1670356810.119976,-9.206,-0.201,4.859,-0.6589,-0.386,0.3764,0.012,0.023,-0.052000000000000005
1670356810.159976,-9.145,-0.268,4.882,-0.657,-0.3875,0.3791,-0.001,0.007,-0.051000000000000004
1670356810.199976,-9.187,-0.225,4.876,-0.6602,-0.388,0.37610000000000005,0.004,0.005,-0.038
1670356810.239976,-9.25,-0.129,4.916,-0.6564,-0.38630000000000003,0.37470000000000003,0.018000000000000002,0.012,-0.06
1670356810.279976,-9.19,-0.232,4.876,-0.658,-0.3869,0.37620000000000003,0.003,0.015,-0.06
1670356810.3199759,-9.129,-0.26,4.823,-0.6586000000000001,-0.3854,0.37560000000000004,-0.003,0.01,-0.042
1670356810.359976,-9.162,-0.179,4.8790000000000004,-0.657,-0.38620000000000004,0.374,0.003,0.015,-0.047
1670356810.399976,-9.151,-0.244,4.8950000000000005,-0.6604,-0.3869,0.3785,0.009000000000000001,0.024,-0.067
1670356810.439976,-9.294,-0.338,4.915,-0.6568,-0.38470000000000004,0.3765,-0.031,0.014,-0.033
1670356810.479976,-9.131,-0.363,4.905,-0.6593,-0.3885,0.37620000000000003,-0.063,-0.006,-0.01
1670356810.519976,-9.13,-0.041,4.918,-0.6577000000000001,-0.386,0.375,-0.013000000000000001,0.005,-0.039
1670356810.5599759,-9.161,-0.137,4.864,-0.6597000000000001,-0.38420000000000004,0.3769,0.062,0.021,-0.069
1670356810.599976,-9.149000000000001,-0.186,4.928,-0.6607000000000001,-0.3854,0.3801,0.081,0.028,-0.049
1670356810.639976,-9.147,-0.23800000000000002,4.922,-0.6567000000000001,-0.3881,0.378,0.046,0.013000000000000001,-0.046
1670356810.679976,-9.187,-0.244,4.8870000000000005,-0.6571,-0.38580000000000003,0.3783,0.018000000000000002,0.013000000000000001,-0.054
1670356810.719976,-9.17,-0.177,4.874,-0.6665,-0.389,0.3781,-0.004,-0.003,-0.049
1670356810.759975,-9.141,-0.177,4.897,-0.6579,-0.387,0.3786,-0.004,-0.005,-0.039
1670356810.799975,-9.111,-0.107,4.902,-0.6573,-0.38720000000000004,0.38020000000000004,0.017,-0.001,-0.063
1670356810.839975,-9.118,-0.152,4.971,-0.6599,-0.38570000000000004,0.3776,0.029,-0.001,-0.073
1670356810.879975,-9.103,-0.22,4.974,-0.6586000000000001,-0.389,0.3794,0.02,-0.002,-0.066
1670356810.919975,-9.157,-0.243,4.964,-0.6601,-0.3856,0.3831,0.0,0.007,-0.062
1670356810.959975,-9.155,-0.191,4.971,-0.6604,-0.3891,0.3815,-0.007,0.015,-0.049
1670356810.999975,-9.106,-0.23,4.977,-0.6574,-0.38530000000000003,0.3759,-0.015,0.023,-0.056
1670356811.039975,-9.1,-0.28,4.9510000000000005,-0.6579,-0.38580000000000003,0.3795,-0.016,0.015,-0.067
1670356811.079975,-9.156,-0.257,4.955,-0.661,-0.3879,0.37970000000000004,-0.02,0.011,-0.062
1670356811.1199749,-9.145,-0.184,4.979,-0.6616000000000001,-0.3866,0.38180000000000003,-0.009000000000000001,0.023,-0.04
1670356811.159975,-9.125,-0.232,4.949,-0.6578,-0.38570000000000004,0.3811,0.0,0.028,-0.054
1670356811.199975,-9.091,-0.219,4.91,-0.6591,-0.38780000000000003,0.379,0.014,0.029,-0.053
1670356811.239975,-9.152000000000001,-0.225,4.929,-0.659,-0.3869,0.378,0.004,0.034,-0.039
1670356811.279975,-9.114,-0.219,4.957,-0.6566000000000001,-0.3855,0.38070000000000004,-0.007,0.027,-0.048
1670356811.319975,-9.142,-0.223,4.956,-0.6557000000000001,-0.38470000000000004,0.3825,-0.014,0.031,-0.056
1670356811.3599749,-9.152000000000001,-0.261,4.921,-0.6566000000000001,-0.3844,0.377,-0.016,0.027,-0.07
1670356811.399975,-9.15,-0.222,4.946,-0.6587000000000001,-0.383,0.38380000000000003,-0.015,0.026000000000000002,-0.06
1670356811.439975,-9.173,-0.232,4.925,-0.6582,-0.38380000000000003,0.3789,0.0,0.027,-0.061
1670356811.479975,-9.097,-0.218,4.932,-0.6576000000000001,-0.387,0.3785,0.011,0.021,-0.049
1670356811.519975,-9.138,-0.25,4.907,-0.658,-0.38530000000000003,0.3784,0.024,0.008,-0.05
1670356811.559975,-9.169,-0.247,4.941,-0.6571,-0.38480000000000003,0.3801,0.024,0.001,-0.055
1670356811.5999749,-9.124,-0.247,4.9590000000000005,-0.6577000000000001,-0.3866,0.3794,0.023,0.006,-0.047
1670356811.639975,-9.154,-0.249,4.9190000000000005,-0.6621,-0.3844,0.38170000000000004,0.013000000000000001,-0.001,-0.047
1670356811.679975,-9.136000000000001,-0.245,4.94,-0.6559,-0.38530000000000003,0.3786,0.012,0.003,-0.053
1670356811.719975,-9.094,-0.228,4.95,-0.6623,-0.3851,0.3855,0.012,0.011,-0.052000000000000005
1670356811.759975,-9.126,-0.271,4.9670000000000005,-0.6601,-0.3879,0.38330000000000003,0.0,0.005,-0.052000000000000005
1670356811.799974,-9.136000000000001,-0.217,4.9510000000000005,-0.6587000000000001,-0.38330000000000003,0.3819,-0.008,0.008,-0.054
1670356811.839974,-9.096,-0.216,5.005,-0.6609,-0.3866,0.3839,0.006,0.011,-0.048
1670356811.879974,-9.079,-0.249,4.968,-0.6623,-0.38530000000000003,0.37460000000000004,0.002,0.008,-0.056
1670356811.9199739,-9.079,-0.249,4.982,-0.6623,-0.38530000000000003,0.3905,0.004,0.009000000000000001,-0.049
1670356811.959974,-9.213000000000001,-0.23800000000000002,4.982,-0.659,-0.3855,0.3905,0.007,0.021,-0.046
1670356811.999974,-9.179,-0.198,5.001,-0.658,-0.3859,0.3698,0.008,0.027,-0.045
1670356812.039974,-9.049,-0.22,4.984,-0.6615,-0.386,0.3922,0.006,0.023,-0.05
1670356812.079974,-9.093,-0.24,4.922,-0.6581,-0.38570000000000004,0.3598,0.009000000000000001,0.02,-0.051000000000000004
1670356812.119974,-9.141,-0.232,4.937,-0.6609,-0.3844,0.37870000000000004,0.0,0.021,-0.048
1670356812.1599739,-9.113,-0.25,4.982,-0.6582,-0.3869,0.3776,-0.004,0.021,-0.047
1670356812.199974,-9.08,-0.278,4.9590000000000005,-0.6564,-0.38670000000000004,0.3766,-0.001,0.024,-0.055
1670356812.239974,-9.086,-0.211,4.969,-0.6575000000000001,-0.3849,0.3805,0.007,0.016,-0.054
1670356812.279974,-9.154,-0.274,4.97,-0.6571,-0.3864,0.3786,0.005,0.028,-0.049
1670356812.319974,-9.129,-0.199,4.946,-0.6581,-0.3856,0.3775,0.013000000000000001,0.023,-0.047
1670356812.359974,-9.094,-0.215,4.956,-0.6597000000000001,-0.3834,0.3806,0.005,0.023,-0.043000000000000003
1670356812.3999739,-9.118,-0.216,4.928,-0.6605000000000001,-0.38470000000000004,0.378,0.012,0.016,-0.055
1670356812.439974,-9.123,-0.20700000000000002,4.958,-0.6574,-0.3875,0.3803,0.013000000000000001,0.01,-0.053
1670356812.479974,-9.097,-0.269,4.973,-0.6678000000000001,-0.38920000000000005,0.39380000000000004,0.002,0.017,-0.046
1670356812.519974,-9.133000000000001,-0.209,4.931,-0.6584,-0.38630000000000003,0.38070000000000004,0.001,0.013000000000000001,-0.048
1670356812.559974,-9.120000000000001,-0.20800000000000002,4.966,-0.6721,-0.3911,0.3824,0.003,0.023,-0.053
1670356812.599974,-9.124,-0.229,4.922,-0.6584,-0.387,0.3798,0.002,0.027,-0.057
1670356812.6399739,-9.13,-0.243,4.955,-0.6617000000000001,-0.38520000000000004,0.3811,-0.002,0.023,-0.058
1670356812.679974,-9.127,-0.23700000000000002,5.001,-0.658,-0.38520000000000004,0.38,-0.006,0.021,-0.051000000000000004
1670356812.719974,-9.074,-0.263,4.993,-0.6656000000000001,-0.3869,0.3801,-0.003,0.015,-0.053
1670356812.759974,-9.164,-0.23800000000000002,4.956,-0.6626000000000001,-0.38630000000000003,0.3803,0.006,0.02,-0.047
1670356812.799974,-9.200000000000001,-0.183,4.999,-0.6624,-0.383,0.37870000000000004,0.013000000000000001,0.032,-0.048
1670356812.839973,-9.092,-0.242,4.932,-0.6571,-0.3855,0.3806,0.004,0.026000000000000002,-0.053
1670356812.879973,-9.129,-0.248,4.921,-0.6575000000000001,-0.385,0.3811,0.004,0.034,-0.05
1670356812.919973,-9.141,-0.2,4.952,-0.6596000000000001,-0.3845,0.37970000000000004,0.004,0.031,-0.049
1670356812.9599729,-9.116,-0.23500000000000001,4.949,-0.6568,-0.3844,0.3806,0.004,0.023,-0.054
1670356812.999973,-9.148,-0.249,4.964,-0.6612,-0.38520000000000004,0.3781,-0.004,0.018000000000000002,-0.062
1670356813.039973,-9.120000000000001,-0.271,4.93,-0.6592,-0.387,0.3766,-0.009000000000000001,0.027,-0.058
1670356813.079973,-9.199,-0.183,4.956,-0.6586000000000001,-0.38530000000000003,0.3783,-0.001,0.03,-0.051000000000000004
1670356813.119973,-9.153,-0.217,4.933,-0.6578,-0.3869,0.3794,0.004,0.032,-0.055
1670356813.159973,-9.099,-0.23500000000000001,4.91,-0.6581,-0.38280000000000003,0.37620000000000003,0.01,0.018000000000000002,-0.048
1670356813.1999729,-9.115,-0.253,4.9030000000000005,-0.6568,-0.3871,0.38280000000000003,0.01,0.007,-0.044
1670356813.239973,-9.146,-0.218,4.952,-0.6593,-0.3865,0.3809,0.012,0.001,-0.054
1670356813.279973,-9.13,-0.265,4.936,-0.6582,-0.38580000000000003,0.3808,0.011,0.007,-0.066
1670356813.319973,-9.146,-0.241,4.9430000000000005,-0.6567000000000001,-0.3839,0.3806,0.0,0.009000000000000001,-0.051000000000000004
1670356813.359973,-9.121,-0.23500000000000001,4.979,-0.6605000000000001,-0.3815,0.3814,0.0,0.014,-0.047
1670356813.399973,-9.139,-0.219,4.941,-0.6596000000000001,-0.38670000000000004,0.3795,0.011,0.026000000000000002,-0.054
1670356813.4399729,-9.133000000000001,-0.217,4.969,-0.66,-0.3855,0.382,0.024,0.032,-0.062
1670356813.479973,-9.139,-0.264,4.938,-0.6582,-0.3841,0.38130000000000003,0.014,0.025,-0.058
1670356813.519973,-9.136000000000001,-0.253,4.925,-0.6582,-0.38670000000000004,0.3758,0.004,0.033,-0.05
1670356813.559973,-9.114,-0.304,4.906,-0.6559,-0.3845,0.3795,-0.009000000000000001,0.027,-0.055
1670356813.599973,-9.173,-0.269,4.8950000000000005,-0.6551,-0.38630000000000003,0.3803,-0.003,0.026000000000000002,-0.062
1670356813.639973,-9.234,-0.17200000000000001,4.891,-0.6571,-0.3841,0.378,0.018000000000000002,0.026000000000000002,-0.057
1670356813.679973,-9.059000000000001,-0.214,4.854,-0.656,-0.3859,0.38180000000000003,0.03,0.004,-0.062
1670356813.719973,-9.1,-0.28,4.9350000000000005,-0.6606000000000001,-0.3854,0.3819,0.025,-0.003,-0.055
1670356813.759973,-9.174,-0.256,4.985,-0.6602,-0.3861,0.3796,0.012,-0.004,-0.046
1670356813.799973,-9.165000000000001,-0.23,5.013,-0.6584,-0.38670000000000004,0.3803,0.003,0.008,-0.05
1670356813.839973,-9.117,-0.23800000000000002,5.062,-0.6587000000000001,-0.385,0.3811,-0.003,0.01,-0.048
1670356813.879972,-9.083,-0.256,5.0040000000000004,-0.6604,-0.3856,0.3835,-0.014,0.007,-0.058
1670356813.919972,-9.185,-0.184,4.966,-0.6593,-0.38520000000000004,0.3816,0.0,0.012,-0.054
1670356813.959972,-9.175,-0.222,5.0280000000000005,-0.6577000000000001,-0.3866,0.38220000000000004,0.001,0.031,-0.046
1670356813.9999719,-9.097,-0.20700000000000002,4.922,-0.6593,-0.3875,0.3789,0.006,0.035,-0.046
1670356814.039972,-9.1,-0.23900000000000002,4.966,-0.6579,-0.3859,0.3795,0.001,0.015,-0.044
1670356814.079972,-9.149000000000001,-0.23800000000000002,5.001,-0.6579,-0.3861,0.3789,0.003,0.007,-0.049
1670356814.119972,-9.049,-0.256,4.961,-0.6599,-0.3865,0.3603,-0.009000000000000001,-0.009000000000000001,-0.05
1670356814.159972,-9.194,-0.274,4.923,-0.6617000000000001,-0.38670000000000004,0.3608,-0.012,0.002,-0.054
1670356814.199972,-9.194,-0.274,5.014,-0.6617000000000001,-0.38670000000000004,0.3773,-0.019,0.005,-0.052000000000000005
1670356814.2399719,-9.093,-0.313,5.014,-0.6606000000000001,-0.38480000000000003,0.3773,-0.029,0.008,-0.048
1670356814.279972,-9.081,-0.29,4.9910000000000005,-0.6593,-0.3839,0.39280000000000004,-0.019,0.018000000000000002,-0.048
1670356814.319972,-9.138,-0.257,4.978,-0.661,-0.3831,0.3749,-0.001,0.023,-0.047
1670356814.359972,-9.129,-0.248,4.9910000000000005,-0.6596000000000001,-0.3851,0.3715,0.018000000000000002,0.02,-0.053
1670356814.399972,-9.068,-0.314,4.998,-0.6611,-0.38230000000000003,0.37970000000000004,0.018000000000000002,0.004,-0.047
1670356814.439972,-9.085,-0.23800000000000002,4.992,-0.659,-0.38230000000000003,0.3806,0.023,0.012,-0.034
1670356814.479972,-9.149000000000001,-0.191,5.019,-0.6689,-0.3894,0.39030000000000004,0.026000000000000002,0.029,-0.043000000000000003
1670356814.519972,-9.113,-0.254,4.958,-0.6571,-0.385,0.3799,0.023,0.031,-0.055
1670356814.559972,-9.09,-0.252,4.94,-0.67,-0.386,0.3806,0.0,0.025,-0.045
1670356814.599972,-9.123,-0.196,4.973,-0.6566000000000001,-0.38580000000000003,0.38280000000000003,-0.005,0.022,-0.044
1670356814.639972,-9.107,-0.226,4.977,-0.6606000000000001,-0.385,0.38570000000000004,-0.001,0.01,-0.061
1670356814.679972,-9.136000000000001,-0.243,4.988,-0.6582,-0.38530000000000003,0.3799,-0.005,0.002,-0.068
1670356814.719972,-9.14,-0.303,4.947,-0.6678000000000001,-0.38830000000000003,0.3922,-0.015,0.006,-0.048
1670356814.759972,-9.163,-0.197,4.979,-0.6601,-0.3855,0.37820000000000004,-0.007,0.022,-0.049
1670356814.799972,-9.144,-0.231,4.98,-0.6605000000000001,-0.3855,0.3805,0.015,0.02,-0.051000000000000004
1670356814.839972,-9.065,-0.23600000000000002,4.9830000000000005,-0.6566000000000001,-0.38370000000000004,0.3803,0.027,0.014,-0.046
1670356814.879972,-9.102,-0.259,4.97,-0.659,-0.3851,0.3805,0.028,0.001,-0.051000000000000004
1670356814.919971,-9.118,-0.252,4.982,-0.6596000000000001,-0.38730000000000003,0.38,0.017,0.001,-0.056
1670356814.959971,-9.07,-0.242,4.988,-0.6597000000000001,-0.385,0.37870000000000004,0.007,0.001,-0.056
1670356814.999971,-9.105,-0.224,4.994,-0.6604,-0.38330000000000003,0.38230000000000003,0.008,0.005,-0.052000000000000005
1670356815.0399709,-9.084,-0.253,5.013,-0.6577000000000001,-0.3844,0.38230000000000003,0.009000000000000001,0.011,-0.056
1670356815.079971,-9.09,-0.23800000000000002,5.056,-0.6573,-0.3831,0.38070000000000004,0.01,0.015,-0.054
1670356815.119971,-9.111,-0.254,5.053,-0.6604,-0.38480000000000003,0.3821,0.006,0.024,-0.048
1670356815.159971,-9.091,-0.23900000000000002,5.019,-0.6592,-0.38330000000000003,0.3791,0.005,0.024,-0.05
1670356815.199971,-9.069,-0.215,5.025,-0.6576000000000001,-0.3869,0.3805,0.001,0.019,-0.047
1670356815.239971,-9.101,-0.226,5.001,-0.6607000000000001,-0.38620000000000004,0.381,0.008,0.006,-0.048
1670356815.279971,-9.049,-0.263,5.003,-0.6597000000000001,-0.3856,0.381,0.004,0.01,-0.053
1670356815.319971,-9.191,-0.23900000000000002,5.035,-0.6599,-0.38620000000000004,0.381,0.007,0.017,-0.049
1670356815.359971,-9.15,-0.253,5.034,-0.6591,-0.38530000000000003,0.37870000000000004,0.007,0.031,-0.052000000000000005
1670356815.399971,-9.07,-0.23600000000000002,4.996,-0.6581,-0.3834,0.381,-0.004,0.021,-0.049
1670356815.439971,-9.072000000000001,-0.253,4.995,-0.6585000000000001,-0.3845,0.3811,-0.011,0.02,-0.044
1670356815.479971,-9.089,-0.199,5.04,-0.6607000000000001,-0.38430000000000003,0.38230000000000003,0.0,0.021,-0.054
1670356815.519971,-9.082,-0.23600000000000002,5.07,-0.6571,-0.3845,0.3798,0.007,0.012,-0.06
1670356815.559971,-9.045,-0.29,5.041,-0.6604,-0.3839,0.3785,0.001,0.008,-0.061
1670356815.599971,-9.062,-0.234,5.026,-0.6704,-0.38870000000000005,0.3909,-0.011,0.009000000000000001,-0.039
1670356815.639971,-9.139,-0.217,5.0,-0.6598,-0.3841,0.3795,0.004,0.021,-0.039
1670356815.679971,-9.11,-0.195,5.0,-0.6628000000000001,-0.3855,0.3794,0.016,0.032,-0.049
1670356815.719971,-9.071,-0.257,4.979,-0.6608,-0.38470000000000004,0.382,0.016,0.032,-0.056
1670356815.759971,-9.113,-0.244,4.985,-0.6601,-0.38630000000000003,0.38530000000000003,-0.003,0.019,-0.046
1670356815.799971,-9.068,-0.241,4.999,-0.6604,-0.3856,0.3798,-0.007,0.012,-0.049
1670356815.839971,-9.094,-0.258,5.002,-0.6596000000000001,-0.38670000000000004,0.381,-0.007,0.01,-0.069
1670356815.879971,-9.118,-0.247,4.968,-0.6601,-0.3836,0.3829,-0.005,0.008,-0.061
1670356815.919971,-9.115,-0.278,5.0200000000000005,-0.6579,-0.385,0.3789,-0.001,0.021,-0.058
1670356815.95997,-9.1,-0.255,5.016,-0.6611,-0.3825,0.3809,-0.002,0.022,-0.054
1670356815.99997,-9.068,-0.258,5.039,-0.6586000000000001,-0.3844,0.38170000000000004,0.009000000000000001,0.021,-0.048
1670356816.03997,-9.105,-0.215,4.982,-0.6601,-0.38530000000000003,0.37970000000000004,0.018000000000000002,0.013000000000000001,-0.05
1670356816.07997,-9.109,-0.28,5.013,-0.6591,-0.3845,0.38330000000000003,0.025,0.009000000000000001,-0.058
1670356816.11997,-9.093,-0.262,5.011,-0.6593,-0.3841,0.38230000000000003,0.015,0.01,-0.058
1670356816.15997,-9.103,-0.292,4.986,-0.6616000000000001,-0.3836,0.3805,0.001,0.011,-0.053
1670356816.19997,-9.077,-0.226,5.009,-0.6618,-0.3835,0.3836,-0.002,0.016,-0.04
1670356816.23997,-9.103,-0.22,5.009,-0.6608,-0.38530000000000003,0.3811,0.011,0.019,-0.052000000000000005
1670356816.27997,-9.038,-0.266,5.031,-0.6595000000000001,-0.3845,0.3793,0.01,0.018000000000000002,-0.054
1670356816.31997,-9.138,-0.256,5.006,-0.6582,-0.3849,0.3815,-0.002,0.023,-0.052000000000000005
1670356816.35997,-9.141,-0.256,5.0520000000000005,-0.6586000000000001,-0.3849,0.38230000000000003,0.004,0.021,-0.056
1670356816.39997,-9.045,-0.22,4.996,-0.6628000000000001,-0.38720000000000004,0.3804,0.002,0.021,-0.051000000000000004
1670356816.43997,-9.045,-0.274,4.955,-0.6767000000000001,-0.3907,0.36360000000000003,-0.001,0.02,-0.049
1670356816.47997,-9.054,-0.274,5.011,-0.6767000000000001,-0.3907,0.36360000000000003,0.003,0.013000000000000001,-0.047
1670356816.51997,-9.127,-0.233,5.011,-0.6628000000000001,-0.38320000000000004,0.3801,0.007,0.017,-0.064
1670356816.55997,-9.079,-0.246,5.057,-0.664,-0.3866,0.4051,0.007,0.015,-0.059000000000000004
1670356816.59997,-9.087,-0.292,5.035,-0.6616000000000001,-0.38530000000000003,0.35900000000000004,-0.003,0.018000000000000002,-0.054
1670356816.63997,-9.077,-0.281,5.026,-0.6686000000000001,-0.39080000000000004,0.37360000000000004,0.002,0.018000000000000002,-0.042
1670356816.67997,-9.127,-0.241,5.006,-0.6597000000000001,-0.3825,0.3806,0.01,0.024,-0.047
1670356816.71997,-9.075000000000001,-0.215,5.043,-0.6692,-0.3879,0.3839,0.018000000000000002,0.021,-0.053
1670356816.75997,-9.043000000000001,-0.217,4.955,-0.6615,-0.3855,0.3803,0.012,0.014,-0.051000000000000004
1670356816.79997,-9.08,-0.257,4.969,-0.6637000000000001,-0.38620000000000004,0.3794,0.003,0.007,-0.051000000000000004
1670356816.83997,-9.111,-0.249,5.0040000000000004,-0.6607000000000001,-0.3864,0.38420000000000004,-0.003,0.01,-0.058
1670356816.87997,-9.083,-0.299,4.997,-0.6599,-0.38670000000000004,0.3839,-0.007,0.01,-0.062
1670356816.91997,-9.085,-0.244,4.955,-0.6591,-0.38470000000000004,0.3801,0.0,0.014,-0.049
1670356816.95997,-9.085,-0.261,5.022,-0.6632,-0.3855,0.3806,0.005,0.022,-0.056
1670356816.999969,-9.097,-0.262,5.014,-0.6613,-0.388,0.37870000000000004,0.002,0.022,-0.058
1670356817.039969,-9.07,-0.272,5.006,-0.6616000000000001,-0.38470000000000004,0.3819,0.001,0.02,-0.053
1670356817.079969,-9.094,-0.277,5.001,-0.661,-0.38480000000000003,0.3789,0.0,0.01,-0.054
1670356817.119969,-9.091,-0.271,5.019,-0.6604,-0.38630000000000003,0.3806,0.003,0.018000000000000002,-0.049
1670356817.159969,-9.097,-0.269,5.006,-0.6601,-0.38380000000000003,0.38420000000000004,0.009000000000000001,0.01,-0.051000000000000004
1670356817.199969,-9.119,-0.25,4.963,-0.6606000000000001,-0.3854,0.3808,0.014,0.025,-0.047
1670356817.239969,-9.119,-0.262,5.003,-0.6626000000000001,-0.3836,0.3808,-0.011,0.051000000000000004,-0.036000000000000004
1670356817.279969,-9.089,-0.309,4.997,-0.6624,-0.38380000000000003,0.38220000000000004,-0.006,0.032,-0.032
1670356817.319969,-9.09,-0.269,5.008,-0.66,-0.3876,0.378,0.001,0.02,-0.049
1670356817.359969,-9.152000000000001,-0.233,4.989,-0.6593,-0.3831,0.3778,0.021,0.018000000000000002,-0.053
1670356817.399969,-9.168000000000001,-0.217,4.982,-0.6585000000000001,-0.38430000000000003,0.379,0.035,0.002,-0.063
1670356817.439969,-9.120000000000001,-0.246,4.942,-0.6601,-0.38520000000000004,0.38,0.031,-0.002,-0.057
1670356817.479969,-9.1,-0.254,4.95,-0.6585000000000001,-0.38670000000000004,0.3819,0.025,0.003,-0.051000000000000004
1670356817.519969,-9.087,-0.245,5.023,-0.6585000000000001,-0.38470000000000004,0.3811,0.011,0.009000000000000001,-0.041
1670356817.559969,-9.106,-0.227,5.043,-0.6583,-0.385,0.3816,0.014,0.004,-0.061
1670356817.599969,-9.088000000000001,-0.278,5.026,-0.6593,-0.3859,0.38120000000000004,0.01,0.0,-0.065
1670356817.639969,-9.109,-0.28500000000000003,5.071,-0.6606000000000001,-0.3845,0.37920000000000004,-0.006,0.011,-0.055
1670356817.679969,-9.119,-0.18,5.081,-0.6605000000000001,-0.3881,0.3791,0.003,0.016,-0.049
1670356817.719969,-9.134,-0.26,5.027,-0.6624,-0.3846,0.38220000000000004,0.014,0.031,-0.057
1670356817.759969,-9.053,-0.25,5.047,-0.6604,-0.385,0.38220000000000004,0.007,0.034,-0.053
1670356817.799969,-9.071,-0.25,4.9910000000000005,-0.6617000000000001,-0.3855,0.38,-0.001,0.031,-0.052000000000000005
1670356817.839969,-9.091,-0.23800000000000002,4.961,-0.6604,-0.38480000000000003,0.3805,-0.002,0.025,-0.057
1670356817.879969,-9.094,-0.278,5.006,-0.6583,-0.38420000000000004,0.38020000000000004,-0.006,0.023,-0.058
1670356817.9199688,-9.105,-0.264,5.034,-0.6607000000000001,-0.38520000000000004,0.3781,-0.009000000000000001,0.015,-0.057
1670356817.959969,-9.102,-0.26,4.9830000000000005,-0.66,-0.385,0.37970000000000004,-0.006,0.011,-0.054
1670356817.999969,-9.102,-0.25,5.005,-0.6591,-0.38480000000000003,0.38170000000000004,-0.002,0.015,-0.06
1670356818.039968,-9.083,-0.28300000000000003,4.995,-0.6618,-0.38230000000000003,0.3801,0.0,0.019,-0.051000000000000004
1670356818.079968,-9.1,-0.28200000000000003,5.01,-0.6621,-0.3834,0.3784,0.008,0.017,-0.054
1670356818.119968,-9.074,-0.289,5.021,-0.6588,-0.3861,0.3811,0.005,0.012,-0.044
1670356818.159968,-9.085,-0.27,5.001,-0.6581,-0.3841,0.38120000000000004,0.01,0.008,-0.047
1670356818.199968,-9.129,-0.241,4.971,-0.6623,-0.38620000000000004,0.3799,0.01,0.014,-0.049
1670356818.239968,-9.092,-0.262,5.001,-0.6604,-0.3855,0.38020000000000004,0.015,0.011,-0.047
1670356818.279968,-9.071,-0.265,5.034,-0.659,-0.3834,0.3816,0.022,0.009000000000000001,-0.054
1670356818.319968,-9.053,-0.259,5.0360000000000005,-0.6615,-0.38420000000000004,0.3806,0.018000000000000002,-0.003,-0.055
1670356818.359968,-9.091,-0.214,5.038,-0.6622,-0.3855,0.3808,0.023,0.0,-0.046
1670356818.399968,-9.074,-0.342,5.053,-0.6612,-0.3861,0.3824,0.018000000000000002,0.018000000000000002,-0.051000000000000004
1670356818.439968,-9.008000000000001,-0.247,5.051,-0.6656000000000001,-0.38470000000000004,0.38280000000000003,0.004,0.017,-0.048
1670356818.479968,-9.057,-0.262,5.0280000000000005,-0.664,-0.3869,0.37920000000000004,-0.005,0.015,-0.044
1670356818.519968,-9.068,-0.25,5.054,-0.6595000000000001,-0.3846,0.3831,-0.003,0.017,-0.055
1670356818.559968,-9.075000000000001,-0.268,5.089,-0.6621,-0.38520000000000004,0.3803,0.003,0.017,-0.061
1670356818.599968,-9.041,-0.281,5.025,-0.6646000000000001,-0.387,0.3829,0.0,0.021,-0.054
1670356818.639968,-9.046,-0.234,5.074,-0.661,-0.3851,0.3724,-0.007,0.027,-0.04
1670356818.679968,-9.114,-0.302,4.988,-0.6684,-0.3919,0.41290000000000004,0.005,0.035,-0.042
1670356818.719968,-9.114,-0.302,4.977,-0.6684,-0.3919,0.37870000000000004,0.007,0.029,-0.054
1670356818.759968,-9.066,-0.23,4.977,-0.6658000000000001,-0.3844,0.37870000000000004,0.008,0.017,-0.053
1670356818.799968,-9.068,-0.274,5.018,-0.6671,-0.3866,0.40040000000000003,-0.001,0.015,-0.054
1670356818.839968,-9.106,-0.23,4.986,-0.662,-0.38830000000000003,0.38320000000000004,0.0,0.006,-0.059000000000000004
1670356818.879968,-9.084,-0.23700000000000002,5.01,-0.663,-0.3865,0.3836,0.008,0.008,-0.061
1670356818.919968,-9.081,-0.28300000000000003,5.029,-0.6626000000000001,-0.38770000000000004,0.3808,0.003,0.009000000000000001,-0.055
1670356818.9599679,-9.099,-0.281,5.041,-0.6624,-0.3856,0.381,0.011,0.02,-0.052000000000000005
1670356818.999968,-9.085,-0.272,5.061,-0.6628000000000001,-0.38420000000000004,0.3804,0.014,0.016,-0.052000000000000005
1670356819.039968,-9.068,-0.29,5.035,-0.6614,-0.3844,0.3804,0.009000000000000001,0.021,-0.051000000000000004
1670356819.079967,-9.081,-0.28,5.057,-0.6626000000000001,-0.3855,0.37720000000000004,0.002,0.017,-0.05
1670356819.119967,-9.068,-0.257,5.0120000000000005,-0.6631,-0.3856,0.3825,0.0,0.018000000000000002,-0.05
1670356819.159967,-9.069,-0.245,5.035,-0.6627000000000001,-0.385,0.38380000000000003,0.004,0.015,-0.053
1670356819.199967,-9.078,-0.234,5.01,-0.6595000000000001,-0.3851,0.38070000000000004,0.014,0.02,-0.058
1670356819.239967,-9.105,-0.249,5.0280000000000005,-0.6634,-0.385,0.3811,0.011,0.023,-0.052000000000000005
1670356819.279967,-9.08,-0.27,5.038,-0.6623,-0.3839,0.38270000000000004,0.006,0.025,-0.057
1670356819.319967,-9.059000000000001,-0.277,5.0280000000000005,-0.6606000000000001,-0.3859,0.3815,-0.009000000000000001,0.018000000000000002,-0.055
1670356819.359967,-9.053,-0.266,5.025,-0.6631,-0.38480000000000003,0.3816,-0.01,0.018000000000000002,-0.056
1670356819.399967,-9.112,-0.218,5.061,-0.66,-0.38480000000000003,0.3799,0.009000000000000001,0.015,-0.059000000000000004
1670356819.439967,-9.064,-0.368,5.0280000000000005,-0.6618,-0.3834,0.3805,0.0,0.032,-0.062
1670356819.479967,-9.02,-0.278,5.002,-0.6631,-0.38530000000000003,0.38120000000000004,-0.008,0.026000000000000002,-0.049
1670356819.519967,-9.088000000000001,-0.292,5.023,-0.6623,-0.3844,0.3798,-0.008,0.021,-0.04
1670356819.559967,-9.075000000000001,-0.274,5.032,-0.6599,-0.382,0.3815,0.01,0.02,-0.055
1670356819.599967,-9.102,-0.28300000000000003,5.03,-0.6634,-0.3845,0.3789,0.007,0.015,-0.061
1670356819.639967,-9.031,-0.331,4.993,-0.6607000000000001,-0.38720000000000004,0.3825,-0.006,0.009000000000000001,-0.056
1670356819.679967,-9.032,-0.262,4.987,-0.6602,-0.3829,0.3814,0.001,0.005,-0.049
1670356819.719967,-9.103,-0.322,5.0200000000000005,-0.6628000000000001,-0.3825,0.3775,0.006,0.018000000000000002,-0.048
1670356819.7599669,-9.071,-0.243,5.0,-0.6671,-0.38580000000000003,0.383,0.013000000000000001,0.016,-0.055
1670356819.799967,-9.05,-0.277,5.021,-0.6629,-0.3844,0.3911,0.001,0.007,-0.051000000000000004
1670356819.839967,-9.099,-0.281,5.049,-0.665,-0.38470000000000004,0.38,0.009000000000000001,0.003,-0.057
1670356819.879967,-9.078,-0.262,5.016,-0.6615,-0.3865,0.37920000000000004,0.01,0.001,-0.064
1670356819.919967,-9.056000000000001,-0.314,5.015,-0.6598,-0.386,0.3806,-0.008,0.007,-0.06
1670356819.959967,-9.061,-0.296,5.05,-0.6621,-0.38330000000000003,0.3785,-0.008,0.009000000000000001,-0.051000000000000004
1670356819.9999669,-9.085,-0.296,5.042,-0.6636000000000001,-0.3859,0.3798,-0.002,0.02,-0.052000000000000005
1670356820.039967,-9.081,-0.323,5.0360000000000005,-0.6605000000000001,-0.38470000000000004,0.382,0.001,0.025,-0.062
1670356820.079967,-9.069,-0.323,5.064,-0.6612,-0.3831,0.37970000000000004,0.002,0.022,-0.052000000000000005
1670356820.119967,-9.077,-0.313,5.0520000000000005,-0.662,-0.38220000000000004,0.38120000000000004,-0.004,0.021,-0.053
1670356820.159967,-9.065,-0.28300000000000003,5.016,-0.6581,-0.3824,0.3811,0.001,0.022,-0.053
1670356820.199966,-9.069,-0.307,5.007,-0.6628000000000001,-0.3831,0.3809,0.015,0.015,-0.054
1670356820.239966,-9.086,-0.312,5.034,-0.6609,-0.38330000000000003,0.38070000000000004,0.015,0.017,-0.049
1670356820.279966,-9.083,-0.29,5.04,-0.6609,-0.3854,0.38230000000000003,0.006,0.015,-0.045
1670356820.319966,-9.029,-0.334,5.009,-0.6594,-0.38230000000000003,0.38,0.003,0.015,-0.051000000000000004
1670356820.359966,-9.14,-0.3,5.061,-0.661,-0.3841,0.382,0.0,0.021,-0.05
1670356820.399966,-9.122,-0.316,5.041,-0.6631,-0.38120000000000004,0.38370000000000004,0.011,0.023,-0.052000000000000005
1670356820.439966,-9.029,-0.275,4.999,-0.6664,-0.3836,0.3783,0.003,0.021,-0.056
1670356820.479966,-9.072000000000001,-0.33,4.977,-0.6632,-0.3824,0.37970000000000004,0.003,0.015,-0.048
1670356820.519966,-9.096,-0.275,5.034,-0.6616000000000001,-0.38220000000000004,0.3805,-0.004,0.015,-0.045
1670356820.5599658,-9.072000000000001,-0.31,5.095,-0.6612,-0.3831,0.38170000000000004,0.008,0.012,-0.052000000000000005
1670356820.599966,-9.069,-0.34500000000000003,5.037,-0.6617000000000001,-0.3841,0.3791,0.01,0.018000000000000002,-0.053
1670356820.639966,-9.089,-0.322,5.022,-0.6599,-0.3844,0.3791,0.0,0.017,-0.051000000000000004
1670356820.679966,-9.135,-0.266,5.0520000000000005,-0.6618,-0.38270000000000004,0.3803,0.005,0.016,-0.038
1670356820.719966,-9.099,-0.263,5.0200000000000005,-0.6609,-0.38220000000000004,0.3808,0.013000000000000001,0.035,-0.057
1670356820.759966,-9.035,-0.334,5.007,-0.6668000000000001,-0.38330000000000003,0.3789,0.02,0.029,-0.048
1670356820.7999659,-9.085,-0.277,5.024,-0.6596000000000001,-0.385,0.3811,0.003,0.019,-0.046
1670356820.839966,-9.115,-0.28700000000000003,5.043,-0.6609,-0.38430000000000003,0.37560000000000004,0.002,0.017,-0.054
1670356820.879966,-9.069,-0.329,5.039,-0.6646000000000001,-0.3841,0.388,0.006,0.014,-0.061
1670356820.919966,-9.074,-0.296,4.995,-0.6635,-0.3825,0.3687,0.0,0.012,-0.056
1670356820.959966,-9.074,-0.302,5.014,-0.6635,-0.38330000000000003,0.3643,-0.007,0.015,-0.049
1670356820.999966,-9.099,-0.302,5.049,-0.662,-0.38330000000000003,0.3643,0.005,0.021,-0.054
1670356821.0399659,-9.088000000000001,-0.299,5.049,-0.6641,-0.3841,0.3856,0.008,0.017,-0.057
1670356821.079966,-9.081,-0.338,5.04,-0.6647000000000001,-0.38270000000000004,0.38930000000000003,0.008,0.02,-0.049
1670356821.119966,-9.063,-0.318,5.027,-0.6623,-0.3871,0.3864,0.008,0.016,-0.045
1670356821.159966,-9.057,-0.303,5.01,-0.6638000000000001,-0.385,0.3693,0.014,0.018000000000000002,-0.045
1670356821.199966,-9.081,-0.28600000000000003,4.997,-0.6608,-0.3808,0.3816,0.018000000000000002,0.011,-0.054
1670356821.239965,-9.102,-0.301,5.0200000000000005,-0.6619,-0.3851,0.3796,0.014,0.026000000000000002,-0.053
1670356821.279965,-9.099,-0.308,5.035,-0.6612,-0.3851,0.3803,0.01,0.027,-0.056
1670356821.319965,-9.082,-0.302,4.998,-0.6631,-0.3826,0.3806,-0.001,0.027,-0.057
1670356821.3599648,-9.065,-0.323,5.014,-0.6612,-0.38420000000000004,0.3806,-0.007,0.024,-0.051000000000000004
1670356821.399965,-9.077,-0.261,5.011,-0.6638000000000001,-0.3839,0.381,0.004,0.026000000000000002,-0.044
1670356821.439965,-9.099,-0.321,5.009,-0.6602,-0.3836,0.3815,0.004,0.032,-0.061
1670356821.479965,-9.054,-0.23500000000000001,4.992,-0.6598,-0.382,0.3806,0.003,0.019,-0.057
1670356821.519965,-9.040000000000001,-0.343,4.942,-0.6714,-0.3891,0.3916,-0.002,0.012,-0.045
1670356821.559965,-9.075000000000001,-0.268,4.9910000000000005,-0.6609,-0.3835,0.38180000000000003,0.008,0.013000000000000001,-0.056
1670356821.5999649,-9.115,-0.277,5.03,-0.6743,-0.3856,0.3814,0.014,0.018000000000000002,-0.06
1670356821.639965,-9.084,-0.332,5.022,-0.6604,-0.3844,0.3794,-0.003,0.02,-0.053
1670356821.679965,-9.064,-0.335,5.003,-0.6622,-0.38330000000000003,0.3819,0.0,0.023,-0.044
1670356821.719965,-9.136000000000001,-0.296,4.997,-0.6595000000000001,-0.3834,0.382,0.001,0.031,-0.046
1670356821.759965,-9.101,-0.253,4.9670000000000005,-0.6686000000000001,-0.38720000000000004,0.37670000000000003,0.012,0.031,-0.06
1670356821.799965,-9.051,-0.319,4.957,-0.666,-0.38270000000000004,0.37870000000000004,0.008,0.022,-0.046
1670356821.8399649,-9.109,-0.295,4.94,-0.6607000000000001,-0.3831,0.38120000000000004,0.004,0.016,-0.053
1670356821.879965,-9.137,-0.28600000000000003,4.99,-0.6615,-0.3829,0.3804,0.009000000000000001,0.019,-0.05
1670356821.919965,-9.108,-0.329,4.981,-0.6601,-0.3836,0.38,0.0,0.016,-0.052000000000000005
1670356821.959965,-9.093,-0.306,4.987,-0.6618,-0.38270000000000004,0.381,-0.006,0.017,-0.051000000000000004
1670356821.999965,-9.102,-0.305,4.9830000000000005,-0.6623,-0.383,0.3795,-0.003,0.021,-0.053
1670356822.039965,-9.099,-0.305,4.96,-0.6605000000000001,-0.383,0.3791,0.001,0.02,-0.055
1670356822.0799649,-9.099,-0.323,4.985,-0.6607000000000001,-0.3816,0.3798,0.0,0.017,-0.052000000000000005
1670356822.119965,-9.106,-0.308,4.998,-0.6625,-0.385,0.3804,0.004,0.011,-0.055
1670356822.159965,-9.114,-0.303,4.989,-0.6607000000000001,-0.384,0.3788,0.012,0.007,-0.06
1670356822.199965,-9.09,-0.321,4.95,-0.6609,-0.38520000000000004,0.379,0.009000000000000001,0.016,-0.06
1670356822.239965,-9.119,-0.314,4.997,-0.6617000000000001,-0.38270000000000004,0.38120000000000004,0.004,0.015,-0.051000000000000004
1670356822.279964,-9.124,-0.324,4.982,-0.6601,-0.3834,0.378,0.001,0.02,-0.054
1670356822.319964,-9.057,-0.365,4.994,-0.6625,-0.3839,0.3784,-0.003,0.015,-0.049
1670356822.359964,-9.168000000000001,-0.32,4.997,-0.6629,-0.3819,0.37770000000000004,-0.006,0.017,-0.048
1670356822.3999639,-9.191,-0.22,5.042,-0.6592,-0.3829,0.3783,0.015,0.016,-0.052000000000000005
1670356822.439964,-9.099,-0.329,4.977,-0.6643,-0.3826,0.37970000000000004,0.012,0.02,-0.058
1670356822.479964,-9.044,-0.34700000000000003,4.953,-0.6635,-0.3826,0.3821,0.0,0.019,-0.05
1670356822.519964,-9.105,-0.26,4.988,-0.6601,-0.38270000000000004,0.3796,0.0,0.011,-0.044
1670356822.559964,-9.115,-0.316,5.018,-0.6608,-0.38280000000000003,0.3801,0.014,0.01,-0.062
1670356822.599964,-9.108,-0.34700000000000003,5.001,-0.6635,-0.38170000000000004,0.3798,0.009000000000000001,0.012,-0.051000000000000004
1670356822.6399639,-9.079,-0.392,4.986,-0.6626000000000001,-0.3819,0.3794,-0.012,0.007,-0.056
1670356822.679964,-9.105,-0.24,5.022,-0.6621,-0.3845,0.38130000000000003,-0.001,0.007,-0.049
1670356822.719964,-9.114,-0.325,4.977,-0.6634,-0.38320000000000004,0.3808,0.009000000000000001,0.018000000000000002,-0.043000000000000003
1670356822.759964,-9.08,-0.332,4.971,-0.6618,-0.381,0.38280000000000003,0.016,0.024,-0.059000000000000004
1670356822.799964,-9.066,-0.312,5.03,-0.6613,-0.38470000000000004,0.3779,0.005,0.013000000000000001,-0.042
1670356822.839964,-9.108,-0.28800000000000003,4.985,-0.6607000000000001,-0.3836,0.3801,0.008,0.008,-0.047
1670356822.8799639,-9.088000000000001,-0.32,4.996,-0.664,-0.38330000000000003,0.38170000000000004,0.014,0.008,-0.048
1670356822.919964,-9.073,-0.358,4.994,-0.6604,-0.3836,0.3784,0.0,0.012,-0.058
1670356822.959964,-9.09,-0.33,4.979,-0.6604,-0.382,0.37820000000000004,-0.008,0.017,-0.051000000000000004
1670356822.999964,-9.087,-0.308,5.021,-0.6653,-0.38280000000000003,0.38,-0.012,0.022,-0.043000000000000003
1670356823.039964,-9.069,-0.323,4.985,-0.6599,-0.3808,0.3803,-0.006,0.026000000000000002,-0.047
1670356823.079964,-9.093,-0.326,5.016,-0.6591,-0.38170000000000004,0.37920000000000004,-0.003,0.021,-0.053
1670356823.119964,-9.072000000000001,-0.322,4.998,-0.6621,-0.3821,0.38,-0.002,0.017,-0.055
1670356823.159964,-9.098,-0.307,5.0120000000000005,-0.6639,-0.38170000000000004,0.3808,-0.002,0.02,-0.046
1670356823.199964,-9.115,-0.32,4.997,-0.6651,-0.3861,0.38720000000000004,0.001,0.022,-0.057
1670356823.239964,-9.115,-0.389,4.992,-0.6651,-0.38220000000000004,0.3483,0.006,0.021,-0.055
1670356823.279964,-9.072000000000001,-0.389,4.992,-0.6632,-0.38220000000000004,0.3483,-0.007,0.024,-0.047
1670356823.319963,-9.146,-0.342,5.033,-0.6626000000000001,-0.3808,0.38670000000000004,0.001,0.035,-0.029
1670356823.359963,-9.195,-0.244,5.001,-0.6617000000000001,-0.3811,0.3844,0.016,0.035,-0.054
1670356823.399963,-9.054,-0.396,4.971,-0.6638000000000001,-0.3836,0.37870000000000004,0.013000000000000001,0.03,-0.053
1670356823.4399629,-9.069,-0.34800000000000003,4.9270000000000005,-0.661,-0.38330000000000003,0.3936,-0.001,0.02,-0.053
1670356823.479963,-9.120000000000001,-0.28800000000000003,4.9590000000000005,-0.659,-0.382,0.3784,-0.001,0.013000000000000001,-0.056
1670356823.519963,-9.088000000000001,-0.336,4.988,-0.6679,-0.3854,0.3895,0.003,0.007,-0.064
1670356823.559963,-9.127,-0.333,5.018,-0.6617000000000001,-0.38520000000000004,0.378,-0.008,0.01,-0.068
1670356823.599963,-9.118,-0.386,4.996,-0.6771,-0.38280000000000003,0.3816,-0.016,0.01,-0.049
1670356823.639963,-9.099,-0.274,5.014,-0.6614,-0.38280000000000003,0.3808,0.004,0.012,-0.053
1670356823.6799629,-9.118,-0.34800000000000003,4.984,-0.6639,-0.38320000000000004,0.383,0.008,0.017,-0.055
1670356823.719963,-9.053,-0.343,4.976,-0.6604,-0.3831,0.3791,0.005,0.004,-0.047
1670356823.759963,-9.078,-0.357,4.962,-0.6707000000000001,-0.38580000000000003,0.3884,0.003,0.004,-0.054
1670356823.799963,-9.105,-0.313,5.002,-0.666,-0.3819,0.3775,0.007,0.001,-0.061
1670356823.839963,-9.099,-0.356,5.035,-0.6605000000000001,-0.3836,0.38120000000000004,-0.002,0.009000000000000001,-0.06
1670356823.879963,-9.066,-0.376,5.008,-0.6624,-0.3806,0.3796,-0.002,0.011,-0.054
1670356823.919963,-9.095,-0.353,5.016,-0.6613,-0.3811,0.3811,0.001,0.014,-0.05
1670356823.959963,-9.097,-0.359,5.031,-0.6606000000000001,-0.3846,0.382,-0.002,0.024,-0.055
1670356823.999963,-9.088000000000001,-0.377,5.008,-0.6621,-0.38120000000000004,0.3809,0.001,0.022,-0.053
1670356824.039963,-9.075000000000001,-0.35000000000000003,5.001,-0.66,-0.38170000000000004,0.38230000000000003,0.01,0.015,-0.056
1670356824.079963,-9.106,-0.361,4.9830000000000005,-0.6613,-0.382,0.3835,0.011,0.01,-0.051000000000000004
1670356824.119963,-9.059000000000001,-0.381,4.992,-0.6622,-0.38120000000000004,0.3814,0.002,0.009000000000000001,-0.05
1670356824.159963,-9.137,-0.335,5.0440000000000005,-0.6634,-0.3841,0.3798,0.011,0.021,-0.042
1670356824.199963,-9.154,-0.28300000000000003,5.029,-0.6618,-0.3816,0.38280000000000003,0.021,0.024,-0.056
1670356824.239963,-9.036,-0.36,4.979,-0.6626000000000001,-0.38170000000000004,0.3798,0.014,0.025,-0.053
1670356824.279963,-9.052,-0.368,4.966,-0.6613,-0.3834,0.3785,0.004,0.022,-0.051000000000000004
1670356824.319963,-9.122,-0.323,5.006,-0.663,-0.38280000000000003,0.38130000000000003,0.001,0.018000000000000002,-0.044
1670356824.359962,-9.108,-0.354,5.0440000000000005,-0.6601,-0.3805,0.3781,0.007,0.01,-0.047
1670356824.399962,-9.09,-0.361,5.069,-0.661,-0.3831,0.3783,0.006,0.012,-0.058
1670356824.439962,-9.106,-0.365,5.014,-0.6615,-0.381,0.3801,-0.003,0.019,-0.052000000000000005
1670356824.4799619,-9.151,-0.319,5.014,-0.659,-0.3831,0.38070000000000004,0.006,0.024,-0.05
1670356824.519962,-9.138,-0.309,5.0440000000000005,-0.6626000000000001,-0.3845,0.37870000000000004,0.012,0.027,-0.051000000000000004
1670356824.559962,-9.019,-0.331,4.986,-0.6727000000000001,-0.38680000000000003,0.3894,0.013000000000000001,0.025,-0.043000000000000003
1670356824.599962,-9.075000000000001,-0.314,4.979,-0.6611,-0.3816,0.381,0.013000000000000001,0.012,-0.042
1670356824.639962,-9.096,-0.308,5.001,-0.6595000000000001,-0.3825,0.3794,0.019,0.011,-0.054
1670356824.679962,-9.092,-0.369,5.009,-0.6639,-0.383,0.38180000000000003,0.016,0.01,-0.06
1670356824.719962,-9.087,-0.325,5.019,-0.6598,-0.38320000000000004,0.3819,-0.005,0.014,-0.048
1670356824.759962,-9.081,-0.313,5.0040000000000004,-0.6626000000000001,-0.3819,0.3831,-0.003,0.02,-0.05
1670356824.799962,-9.083,-0.307,4.974,-0.6627000000000001,-0.3845,0.3764,0.003,0.022,-0.054
1670356824.839962,-9.081,-0.334,4.976,-0.6591,-0.38330000000000003,0.3801,0.003,0.029,-0.049
1670356824.879962,-9.074,-0.354,4.988,-0.6638000000000001,-0.3815,0.3798,-0.001,0.025,-0.055
1670356824.919962,-9.075000000000001,-0.377,5.054,-0.6649,-0.3839,0.3784,-0.002,0.016,-0.051000000000000004
1670356824.959962,-9.111,-0.337,5.059,-0.6631,-0.3814,0.3799,0.006,0.012,-0.053
1670356824.999962,-9.163,-0.278,5.074,-0.6638000000000001,-0.3819,0.37820000000000004,0.015,0.009000000000000001,-0.038
1670356825.039962,-9.081,-0.366,5.022,-0.6606000000000001,-0.382,0.3805,0.015,0.032,-0.045
1670356825.079962,-9.063,-0.328,4.956,-0.6611,-0.38470000000000004,0.3815,0.009000000000000001,0.03,-0.052000000000000005
1670356825.119962,-9.105,-0.299,4.986,-0.6606000000000001,-0.38220000000000004,0.38170000000000004,0.011,0.029,-0.045
1670356825.159962,-9.109,-0.311,5.002,-0.6624,-0.3824,0.3778,0.009000000000000001,0.026000000000000002,-0.055
1670356825.199962,-9.111,-0.35100000000000003,4.994,-0.6598,-0.3851,0.3789,-0.001,0.024,-0.055
1670356825.239962,-9.135,-0.359,4.966,-0.6608,-0.3825,0.3808,-0.01,0.023,-0.058
1670356825.279962,-9.163,-0.248,5.006,-0.661,-0.38280000000000003,0.3791,0.002,0.011,-0.041
1670356825.319962,-9.138,-0.305,4.956,-0.662,-0.3825,0.37970000000000004,0.008,0.025,-0.051000000000000004
1670356825.359962,-9.085,-0.317,4.944,-0.6596000000000001,-0.38170000000000004,0.379,0.013000000000000001,0.028,-0.051000000000000004
1670356825.399961,-9.099,-0.327,4.9670000000000005,-0.6626000000000001,-0.38120000000000004,0.388,0.021,0.009000000000000001,-0.05
1670356825.439961,-9.113,-0.298,5.003,-0.662,-0.3861,0.3734,0.018000000000000002,0.004,-0.054
1670356825.479961,-9.113,-0.334,4.998,-0.662,-0.3839,0.3891,0.014,0.002,-0.057
1670356825.5199609,-9.131,-0.334,5.0280000000000005,-0.6643,-0.3839,0.3891,0.002,0.004,-0.056
1670356825.559961,-9.091,-0.335,5.0280000000000005,-0.6666000000000001,-0.3851,0.3886,-0.002,0.015,-0.059000000000000004
1670356825.599961,-9.104000000000001,-0.333,5.011,-0.6655,-0.38420000000000004,0.4005,-0.001,0.021,-0.054
1670356825.639961,-9.112,-0.325,5.007,-0.6626000000000001,-0.383,0.3814,-0.001,0.021,-0.056
1670356825.679961,-9.094,-0.328,4.997,-0.6771,-0.38730000000000003,0.3794,0.008,0.021,-0.053
1670356825.719961,-9.108,-0.324,4.998,-0.6632,-0.38330000000000003,0.382,0.008,0.021,-0.058
1670356825.759961,-9.091,-0.34600000000000003,4.9750000000000005,-0.6646000000000001,-0.3861,0.3834,0.007,0.021,-0.053
1670356825.799961,-9.096,-0.369,5.006,-0.6648000000000001,-0.3825,0.38,0.001,0.017,-0.048
1670356825.839961,-9.146,-0.335,5.026,-0.6628000000000001,-0.3809,0.3814,0.007,0.012,-0.039
1670356825.799961,-9.166,-0.225,5.026,-0.6591,-0.38230000000000003,0.38,0.029,0.038,-0.053
1670356825.839961,-9.08,-0.332,4.993,-0.6607000000000001,-0.3861,0.3786,0.032,0.03,-0.063
1670356825.879961,-9.093,-0.354,4.926,-0.6613,-0.3819,0.381,-0.002,0.022,-0.045
1670356825.919961,-9.111,-0.34800000000000003,4.979,-0.661,-0.3834,0.3798,-0.011,0.016,-0.045
1670356825.959961,-9.105,-0.259,5.011,-0.6633,-0.3809,0.37670000000000003,0.005,0.011,-0.054
1670356825.999961,-9.135,-0.307,4.976,-0.6635,-0.38330000000000003,0.3783,0.012,0.007,-0.059000000000000004
1670356826.039961,-9.093,-0.382,5.027,-0.6628000000000001,-0.381,0.3791,0.001,0.005,-0.045
1670356826.079961,-9.133000000000001,-0.269,4.982,-0.6624,-0.3829,0.3781,0.003,0.019,-0.047
1670356826.119961,-9.139,-0.289,5.04,-0.6619,-0.38270000000000004,0.38130000000000003,0.007,0.027,-0.053
1670356826.159961,-9.087,-0.296,4.956,-0.6579,-0.383,0.3804,0.013000000000000001,0.024,-0.049
1670356826.199961,-9.083,-0.321,5.024,-0.6615,-0.38270000000000004,0.3794,0.006,0.02,-0.042
1670356826.239961,-9.097,-0.28700000000000003,4.964,-0.662,-0.38420000000000004,0.37820000000000004,0.003,0.019,-0.054
1670356826.279961,-9.103,-0.314,5.01,-0.6603,-0.3819,0.3834,0.004,0.012,-0.057
1670356826.319961,-9.115,-0.332,5.0,-0.6602,-0.3846,0.3816,-0.003,0.013000000000000001,-0.053
1670356826.359961,-9.113,-0.329,4.964,-0.6643,-0.38330000000000003,0.3776,-0.015,0.02,-0.042
1670356826.399961,-9.095,-0.28700000000000003,4.986,-0.6584,-0.3829,0.3809,-0.01,0.026000000000000002,-0.047
1670356826.43996,-9.106,-0.311,5.003,-0.6598,-0.38280000000000003,0.37920000000000004,0.004,0.026000000000000002,-0.054
1670356826.47996,-9.087,-0.339,4.989,-0.6628000000000001,-0.38380000000000003,0.3795,0.005,0.018000000000000002,-0.052000000000000005
1670356826.51996,-9.094,-0.338,4.961,-0.6614,-0.38380000000000003,0.3788,0.004,0.011,-0.049
1670356826.55996,-9.112,-0.326,5.013,-0.6607000000000001,-0.3836,0.3794,0.012,0.005,-0.053
1670356826.59996,-9.115,-0.331,4.976,-0.66,-0.3844,0.3776,0.018000000000000002,0.012,-0.052000000000000005
1670356826.63996,-9.021,-0.328,4.987,-0.6599,-0.38480000000000003,0.3788,0.014,0.013000000000000001,-0.045
1670356826.67996,-9.087,-0.28600000000000003,4.984,-0.661,-0.38180000000000003,0.3794,0.009000000000000001,0.013000000000000001,-0.032
1670356826.71996,-9.142,-0.319,5.0040000000000004,-0.662,-0.3839,0.38330000000000003,0.019,0.031,-0.052000000000000005
1670356826.75996,-9.062,-0.28400000000000003,4.968,-0.6624,-0.3845,0.38270000000000004,0.0,0.018000000000000002,-0.047
1670356826.79996,-9.061,-0.339,4.973,-0.6609,-0.38280000000000003,0.37970000000000004,-0.002,0.013000000000000001,-0.037
1670356826.83996,-9.102,-0.278,5.008,-0.6635,-0.3839,0.37620000000000003,-0.005,0.008,-0.048
1670356826.87996,-9.1,-0.269,5.043,-0.6607000000000001,-0.3825,0.37970000000000004,0.005,0.003,-0.063
1670356826.91996,-9.071,-0.35100000000000003,5.0280000000000005,-0.6619,-0.3854,0.3805,0.0,0.014,-0.057
1670356826.95996,-9.054,-0.304,5.001,-0.6599,-0.3844,0.3796,-0.005,0.02,-0.058
1670356826.99996,-9.108,-0.362,5.0,-0.6604,-0.38480000000000003,0.38230000000000003,0.005,0.024,-0.046
1670356827.03996,-9.057,-0.281,5.017,-0.6617000000000001,-0.38270000000000004,0.3814,0.005,0.029,-0.049
1670356827.07996,-9.081,-0.298,4.981,-0.6607000000000001,-0.38380000000000003,0.38230000000000003,0.003,0.021,-0.055
1670356827.11996,-9.087,-0.293,4.977,-0.6607000000000001,-0.3839,0.38320000000000004,0.003,0.013000000000000001,-0.053
1670356827.15996,-9.115,-0.303,5.049,-0.6607000000000001,-0.3808,0.38070000000000004,0.003,0.005,-0.052000000000000005
1670356827.19996,-9.115,-0.32,4.989,-0.6634,-0.38380000000000003,0.3804,0.005,0.004,-0.056
1670356827.23996,-9.091,-0.338,4.976,-0.6587000000000001,-0.38230000000000003,0.3811,-0.005,0.011,-0.059000000000000004
1670356827.27996,-9.102,-0.324,5.0,-0.6595000000000001,-0.3824,0.3819,-0.003,0.016,-0.053
1670356827.31996,-9.045,-0.35100000000000003,5.0360000000000005,-0.6628000000000001,-0.3824,0.3798,-0.003,0.02,-0.055
1670356827.35996,-9.079,-0.34,4.985,-0.6618,-0.38270000000000004,0.3809,-0.003,0.023,-0.054
1670356827.39996,-9.078,-0.307,4.987,-0.6633,-0.38520000000000004,0.38270000000000004,0.005,0.014,-0.06
1670356827.43996,-9.073,-0.339,5.0360000000000005,-0.6594,-0.38430000000000003,0.38230000000000003,0.002,0.011,-0.056
1670356827.479959,-9.064,-0.332,5.022,-0.6626000000000001,-0.3811,0.3804,-0.005,0.01,-0.055
1670356827.519959,-9.124,-0.35000000000000003,5.0200000000000005,-0.662,-0.38220000000000004,0.38170000000000004,0.0,0.009000000000000001,-0.051000000000000004
1670356827.559959,-9.145,-0.297,5.041,-0.6756,-0.3849,0.3815,0.011,0.016,-0.042
1670356827.599959,-9.041,-0.354,4.979,-0.6641,-0.3811,0.399,0.006,0.026000000000000002,-0.049
1670356827.639959,-9.059000000000001,-0.34900000000000003,4.9830000000000005,-0.6663,-0.3811,0.382,0.005,0.019,-0.05
1670356827.679959,-9.059000000000001,-0.331,5.033,-0.6663,-0.3811,0.3795,0.004,0.012,-0.047
1670356827.719959,-9.095,-0.331,5.033,-0.6645,-0.3835,0.3795,0.006,0.002,-0.06
1670356827.759959,-9.072000000000001,-0.328,5.019,-0.6657000000000001,-0.3856,0.3922,0.0,0.002,-0.063
1670356827.799959,-9.05,-0.393,5.046,-0.662,-0.382,0.3941,-0.011,0.008,-0.057
1670356827.839959,-9.046,-0.313,5.043,-0.664,-0.3805,0.38420000000000004,0.002,0.013000000000000001,-0.049
1670356827.879959,-9.135,-0.363,4.995,-0.6633,-0.38330000000000003,0.3821,0.013000000000000001,0.022,-0.05
1670356827.919959,-9.073,-0.308,5.0520000000000005,-0.664,-0.3801,0.3799,0.015,0.016,-0.042
1670356827.959959,-9.055,-0.34400000000000003,5.025,-0.6617000000000001,-0.3814,0.38330000000000003,0.014,0.013000000000000001,-0.043000000000000003
1670356827.999959,-9.06,-0.335,5.003,-0.6613,-0.382,0.3776,0.005,0.012,-0.05
1670356828.039959,-9.055,-0.332,5.032,-0.6618,-0.3825,0.3805,0.006,0.008,-0.065
1670356828.079959,-9.076,-0.377,5.017,-0.6623,-0.38270000000000004,0.3806,-0.011,0.006,-0.055
1670356828.119959,-9.081,-0.328,5.0360000000000005,-0.6636000000000001,-0.38120000000000004,0.38120000000000004,-0.001,0.009000000000000001,-0.045
1670356828.159959,-9.072000000000001,-0.34500000000000003,5.046,-0.662,-0.38330000000000003,0.3805,0.007,0.023,-0.053
1670356828.199959,-9.072000000000001,-0.34700000000000003,5.05,-0.6606000000000001,-0.382,0.3808,0.01,0.025,-0.051000000000000004
1670356828.239959,-9.072000000000001,-0.35100000000000003,5.067,-0.6615,-0.3805,0.3798,0.003,0.021,-0.048
1670356828.279959,-9.05,-0.338,4.994,-0.663,-0.38280000000000003,0.37920000000000004,0.009000000000000001,0.016,-0.053
1670356828.319959,-9.069,-0.35100000000000003,5.064,-0.6616000000000001,-0.38120000000000004,0.3841,0.015,0.011,-0.055
1670356828.359959,-9.05,-0.341,5.066,-0.6602,-0.38270000000000004,0.3821,0.003,0.012,-0.056
1670356828.3999588,-9.048,-0.317,5.037,-0.6638000000000001,-0.3836,0.3803,0.004,0.012,-0.043000000000000003
1670356828.439959,-9.141,-0.34500000000000003,5.042,-0.6601,-0.38220000000000004,0.3814,0.011,0.019,-0.043000000000000003
1670356828.479959,-9.131,-0.34400000000000003,5.0520000000000005,-0.6633,-0.38280000000000003,0.37870000000000004,0.009000000000000001,0.026000000000000002,-0.053
1670356828.519958,-9.041,-0.294,5.026,-0.6612,-0.38420000000000004,0.384,0.003,0.023,-0.054
1670356828.559958,-9.042,-0.338,5.0040000000000004,-0.6664,-0.38530000000000003,0.38280000000000003,0.005,0.01,-0.046
1670356828.599958,-9.066,-0.339,5.043,-0.6589,-0.38220000000000004,0.37820000000000004,0.003,0.009000000000000001,-0.057
1670356828.639958,-9.056000000000001,-0.35000000000000003,5.074,-0.664,-0.38520000000000004,0.3774,0.0,0.007,-0.055
1670356828.679958,-9.033,-0.401,5.0520000000000005,-0.6684,-0.38420000000000004,0.38230000000000003,-0.006,0.008,-0.058
1670356828.719958,-9.013,-0.3,5.037,-0.6643,-0.38180000000000003,0.38070000000000004,0.0,0.014,-0.049
1670356828.759958,-9.094,-0.384,5.024,-0.6646000000000001,-0.38170000000000004,0.38170000000000004,0.01,0.028,-0.049
1670356828.799958,-9.082,-0.315,5.072,-0.6633,-0.3815,0.3803,0.013000000000000001,0.033,-0.046
1670356828.839958,-9.029,-0.341,5.003,-0.6608,-0.38170000000000004,0.3814,0.007,0.023,-0.038
1670356828.879958,-9.053,-0.306,5.035,-0.6631,-0.383,0.37970000000000004,0.011,0.005,-0.052000000000000005
1670356828.919958,-9.11,-0.342,5.061,-0.6646000000000001,-0.38230000000000003,0.38170000000000004,0.017,0.01,-0.064
1670356828.959958,-9.075000000000001,-0.38,5.03,-0.6606000000000001,-0.3816,0.38220000000000004,0.0,0.005,-0.05
1670356828.999958,-9.048,-0.32,5.031,-0.6643,-0.38230000000000003,0.3811,0.002,0.014,-0.047
1670356829.039958,-9.058,-0.343,5.0440000000000005,-0.6613,-0.38170000000000004,0.38270000000000004,0.01,0.018000000000000002,-0.054
1670356829.079958,-9.069,-0.34400000000000003,5.056,-0.6631,-0.3831,0.38430000000000003,0.008,0.024,-0.058
1670356829.119958,-9.069,-0.34400000000000003,5.0600000000000005,-0.6601,-0.3816,0.3801,0.0,0.022,-0.051000000000000004
1670356829.159958,-9.035,-0.332,5.051,-0.6617000000000001,-0.3806,0.3806,0.005,0.022,-0.049
1670356829.1999578,-9.059000000000001,-0.308,5.0840000000000005,-0.6641,-0.3855,0.38230000000000003,0.011,0.014,-0.057
1670356829.239958,-9.063,-0.325,5.01,-0.663,-0.3803,0.38220000000000004,0.016,0.012,-0.054
1670356829.279958,-9.083,-0.319,5.053,-0.6628000000000001,-0.3839,0.3825,0.007,0.023,-0.052000000000000005
1670356829.319958,-9.088000000000001,-0.324,5.029,-0.6646000000000001,-0.382,0.38270000000000004,0.015,0.018000000000000002,-0.052000000000000005
1670356829.359958,-9.048,-0.372,5.093,-0.6637000000000001,-0.38170000000000004,0.3803,0.0,0.023,-0.048
1670356829.399958,-9.124,-0.325,5.058,-0.6638000000000001,-0.38270000000000004,0.3784,0.003,0.013000000000000001,-0.052000000000000005
1670356829.4399579,-9.137,-0.249,5.073,-0.6629,-0.38280000000000003,0.3816,0.011,0.016,-0.044
1670356829.479958,-9.049,-0.366,4.992,-0.664,-0.3829,0.3826,0.009000000000000001,0.029,-0.06
1670356829.519958,-9.038,-0.357,5.025,-0.6608,-0.3825,0.3808,0.005,0.02,-0.051000000000000004
1670356829.559958,-9.086,-0.316,5.014,-0.6614,-0.38480000000000003,0.3824,0.0,0.021,-0.049
1670356829.599958,-9.117,-0.313,5.064,-0.6649,-0.38330000000000003,0.38270000000000004,0.002,0.018000000000000002,-0.048
1670356829.639957,-9.056000000000001,-0.38,5.067,-0.662,-0.38380000000000003,0.3809,-0.003,0.042,-0.046
1670356829.679957,-9.097,-0.376,5.0040000000000004,-0.6623,-0.3856,0.3864,0.0,0.017,-0.05
1670356829.719957,-9.148,-0.188,5.035,-0.6673,-0.3845,0.3874,0.018000000000000002,0.017,-0.046
1670356829.759957,-9.088000000000001,-0.366,5.019,-0.6631,-0.38470000000000004,0.3788,0.029,0.017,-0.046
1670356829.799957,-9.083,-0.298,5.034,-0.6634,-0.3806,0.3791,0.041,0.011,-0.059000000000000004
1670356829.839957,-9.068,-0.299,5.01,-0.6617000000000001,-0.3831,0.3844,0.03,0.007,-0.05
1670356829.879957,-9.088000000000001,-0.294,5.065,-0.6664,-0.38370000000000004,0.3814,0.016,0.0,-0.051000000000000004
1670356829.919957,-9.097,-0.32,5.018,-0.6679,-0.3844,0.396,0.015,0.003,-0.061
1670356829.959957,-9.097,-0.33,5.077,-0.6679,-0.3844,0.37620000000000003,0.0,0.009000000000000001,-0.067
1670356829.9999568,-9.088000000000001,-0.33,5.077,-0.662,-0.3835,0.37620000000000003,-0.004,0.014,-0.054
1670356830.039957,-9.057,-0.31,5.024,-0.6664,-0.3825,0.3594,-0.007,0.026000000000000002,-0.059000000000000004
1670356830.079957,-9.066,-0.293,5.032,-0.6654,-0.3841,0.3704,-0.006,0.025,-0.054
1670356830.119957,-9.063,-0.325,5.08,-0.6626000000000001,-0.3836,0.38830000000000003,-0.003,0.023,-0.063
1670356830.159957,-9.093,-0.325,5.035,-0.6651,-0.38430000000000003,0.38020000000000004,0.002,0.023,-0.054
1670356830.199957,-9.078,-0.32,5.031,-0.6638000000000001,-0.3824,0.3801,0.003,0.019,-0.055
1670356830.2399569,-9.062,-0.334,5.058,-0.6632,-0.3845,0.3811,0.006,0.019,-0.053
1670356830.279957,-9.095,-0.314,5.055,-0.6615,-0.3806,0.38230000000000003,0.01,0.024,-0.06
1670356830.319957,-9.079,-0.336,5.027,-0.6631,-0.38220000000000004,0.3806,0.005,0.025,-0.048
1670356830.359957,-9.077,-0.342,5.0360000000000005,-0.6621,-0.3805,0.3831,0.003,0.027,-0.051000000000000004
1670356830.399957,-9.087,-0.32,5.046,-0.6711,-0.38320000000000004,0.3801,-0.003,0.024,-0.056
1670356830.439957,-9.039,-0.354,5.033,-0.6612,-0.3841,0.3805,-0.012,0.016,-0.049
1670356830.4799569,-9.072000000000001,-0.306,5.011,-0.6657000000000001,-0.38480000000000003,0.38530000000000003,0.006,0.008,-0.037
1670356830.519957,-9.118,-0.34600000000000003,5.058,-0.6626000000000001,-0.3816,0.38280000000000003,0.013000000000000001,0.02,-0.059000000000000004
1670356830.559957,-9.07,-0.29,4.9910000000000005,-0.6627000000000001,-0.38520000000000004,0.38920000000000005,0.009000000000000001,0.023,-0.057
1670356830.599957,-9.056000000000001,-0.395,4.976,-0.6618,-0.3834,0.3791,-0.004,0.018000000000000002,-0.043000000000000003
1670356830.639957,-9.067,-0.325,5.029,-0.6615,-0.386,0.38180000000000003,0.003,0.007,-0.053
1670356830.679956,-9.105,-0.308,5.066,-0.6618,-0.3851,0.3781,0.011,0.013000000000000001,-0.058
1670356830.719956,-9.06,-0.339,5.0440000000000005,-0.662,-0.3834,0.38270000000000004,0.001,0.014,-0.055
1670356830.759956,-9.041,-0.362,5.016,-0.6642,-0.38230000000000003,0.37920000000000004,0.0,0.01,-0.041
1670356830.7999558,-9.117,-0.337,5.034,-0.6651,-0.3825,0.3834,0.005,0.017,-0.048
1670356830.839956,-9.08,-0.312,5.074,-0.6617000000000001,-0.38470000000000004,0.3801,0.011,0.02,-0.063
1670356830.879956,-9.031,-0.334,5.0200000000000005,-0.661,-0.3829,0.38,0.0,0.014,-0.048
